STUDYID,USUBJID,SUBJID,SITEID,AGE,AGEU,AGEGR1,AGEGR1N,SEX,RACE,ETHNIC,COUNTRY,ARM,ARMCD,ACTARM,ACTARMCD,TRT01P,TRT01PN,TRT01A,TRT01AN,TRTSDT,TRTEDT,RFSTDTC,RFENDTC,SAFFL,ITTFL,EFFFL,RANDFL,RANDDT,COMP24FL
CLIN-2025-042,CLIN-2025-042-SITE01-0001,1,SITE01,28,YEARS,<65,1,F,WHITE,NOT HISPANIC OR LATINO,USA,Treatment A,TRT01,Treatment A,TRT01,Treatment A,1,Treatment A,1,2025-04-17,2025-06-20,2025-04-17,2025-06-20,Y,Y,Y,Y,2025-04-17,Y
CLIN-2025-042,CLIN-2025-042-SITE02-0002,2,SITE02,49,YEARS,<65,1,F,WHITE,NOT HISPANIC OR LATINO,USA,Placebo,PBO,Placebo,PBO,Placebo,3,Placebo,3,2025-04-24,2025-06-20,2025-04-24,2025-06-20,Y,Y,Y,Y,2025-04-24,Y
CLIN-2025-042,CLIN-2025-042-SITE03-0003,3,SITE03,36,YEARS,<65,1,M,WHITE,NOT HISPANIC OR LATINO,USA,Placebo,PBO,Placebo,PBO,Placebo,3,Placebo,3,2025-02-21,2025-04-13,2025-02-21,2025-04-13,Y,Y,Y,Y,2025-02-21,N
CLIN-2025-042,CLIN-2025-042-SITE04-0004,4,SITE04,31,YEARS,<65,1,M,OTHER,NOT HISPANIC OR LATINO,CAN,Treatment A,TRT01,Treatment A,TRT01,Treatment A,1,Treatment A,1,2025-03-14,2025-05-12,2025-03-14,2025-05-12,Y,Y,Y,Y,2025-03-14,Y
CLIN-2025-042,CLIN-2025-042-SITE05-0005,5,SITE05,36,YEARS,<65,1,M,WHITE,HISPANIC OR LATINO,GBR,Treatment A,TRT01,Treatment A,TRT01,Treatment A,1,Treatment A,1,2025-03-06,2025-05-06,2025-03-06,2025-05-06,Y,Y,Y,Y,2025-03-06,Y
CLIN-2025-042,CLIN-2025-042-SITE01-0006,6,SITE01,46,YEARS,<65,1,F,WHITE,HISPANIC OR LATINO,USA,Treatment A,TRT01,Treatment A,TRT01,Treatment A,1,Treatment A,1,2025-05-26,2025-07-28,2025-05-26,2025-07-28,Y,Y,Y,Y,2025-05-26,Y
CLIN-2025-042,CLIN-2025-042-SITE02-0007,7,SITE02,39,YEARS,<65,1,F,WHITE,HISPANIC OR LATINO,USA,Treatment B,TRT02,Treatment B,TRT02,Treatment B,2,Treatment B,2,2025-05-05,2025-06-30,2025-05-05,2025-06-30,Y,Y,Y,Y,2025-05-05,Y
CLIN-2025-042,CLIN-2025-042-SITE03-0008,8,SITE03,50,YEARS,<65,1,F,WHITE,NOT HISPANIC OR LATINO,USA,Treatment B,TRT02,Treatment B,TRT02,Treatment B,2,Treatment B,2,2025-05-28,2025-07-26,2025-05-28,2025-07-26,Y,Y,Y,Y,2025-05-28,Y
CLIN-2025-042,CLIN-2025-042-SITE04-0009,9,SITE04,56,YEARS,<65,1,M,OTHER,NOT HISPANIC OR LATINO,CAN,Treatment B,TRT02,Treatment B,TRT02,Treatment B,2,Treatment B,2,2025-01-28,2025-04-03,2025-01-28,2025-04-03,Y,Y,Y,Y,2025-01-28,Y
CLIN-2025-042,CLIN-2025-042-SITE05-0010,10,SITE05,75,YEARS,>=65,2,M,ASIAN,NOT HISPANIC OR LATINO,GBR,Treatment B,TRT02,Treatment B,TRT02,Treatment B,2,Treatment B,2,2025-05-05,2025-07-06,2025-05-05,2025-07-06,Y,Y,Y,Y,2025-05-05,Y
CLIN-2025-042,CLIN-2025-042-SITE01-0011,11,SITE01,60,YEARS,<65,1,M,BLACK,HISPANIC OR LATINO,USA,Placebo,PBO,Placebo,PBO,Placebo,3,Placebo,3,2025-04-12,2025-06-01,2025-04-12,2025-06-01,Y,Y,Y,Y,2025-04-12,Y
CLIN-2025-042,CLIN-2025-042-SITE02-0012,12,SITE02,58,YEARS,<65,1,F,WHITE,NOT HISPANIC OR LATINO,USA,Treatment A,TRT01,Treatment A,TRT01,Treatment A,1,Treatment A,1,2025-02-24,2025-04-21,2025-02-24,2025-04-21,N,N,Y,Y,2025-02-24,Y
CLIN-2025-042,CLIN-2025-042-SITE03-0013,13,SITE03,57,YEARS,<65,1,F,WHITE,NOT HISPANIC OR LATINO,USA,Treatment A,TRT01,Treatment A,TRT01,Treatment A,1,Treatment A,1,2025-03-17,2025-05-10,2025-03-17,2025-05-10,Y,Y,N,Y,2025-03-17,N
CLIN-2025-042,CLIN-2025-042-SITE04-0014,14,SITE04,49,YEARS,<65,1,F,BLACK,NOT HISPANIC OR LATINO,CAN,Treatment B,TRT02,Treatment B,TRT02,Treatment B,2,Treatment B,2,2025-01-15,2025-03-10,2025-01-15,2025-03-10,Y,Y,Y,Y,2025-01-15,Y
CLIN-2025-042,CLIN-2025-042-SITE05-0015,15,SITE05,47,YEARS,<65,1,M,WHITE,HISPANIC OR LATINO,GBR,Treatment B,TRT02,Treatment B,TRT02,Treatment B,2,Treatment B,2,2025-01-29,2025-03-29,2025-01-29,2025-03-29,Y,Y,Y,Y,2025-01-29,Y
CLIN-2025-042,CLIN-2025-042-SITE01-0016,16,SITE01,43,YEARS,<65,1,M,BLACK,HISPANIC OR LATINO,USA,Treatment B,TRT02,Treatment B,TRT02,Treatment B,2,Treatment B,2,2025-06-14,2025-08-09,2025-06-14,2025-08-09,Y,Y,Y,Y,2025-06-14,Y
CLIN-2025-042,CLIN-2025-042-SITE02-0017,17,SITE02,35,YEARS,<65,1,F,WHITE,NOT HISPANIC OR LATINO,USA,Treatment A,TRT01,Treatment A,TRT01,Treatment A,1,Treatment A,1,2025-04-10,2025-05-31,2025-04-10,2025-05-31,Y,Y,Y,Y,2025-04-10,N
CLIN-2025-042,CLIN-2025-042-SITE03-0018,18,SITE03,40,YEARS,<65,1,F,WHITE,NOT HISPANIC OR LATINO,USA,Treatment B,TRT02,Treatment B,TRT02,Treatment B,2,Treatment B,2,2025-03-30,2025-05-25,2025-03-30,2025-05-25,Y,Y,Y,Y,2025-03-30,Y
CLIN-2025-042,CLIN-2025-042-SITE04-0019,19,SITE04,25,YEARS,<65,1,M,BLACK,NOT HISPANIC OR LATINO,CAN,Treatment A,TRT01,Treatment A,TRT01,Treatment A,1,Treatment A,1,2025-01-17,2025-03-14,2025-01-17,2025-03-14,N,Y,Y,Y,2025-01-17,N
CLIN-2025-042,CLIN-2025-042-SITE05-0020,20,SITE05,75,YEARS,>=65,2,M,WHITE,NOT HISPANIC OR LATINO,GBR,Treatment A,TRT01,Treatment A,TRT01,Treatment A,1,Treatment A,1,2025-03-14,2025-05-11,2025-03-14,2025-05-11,Y,Y,N,Y,2025-03-14,Y
CLIN-2025-042,CLIN-2025-042-SITE01-0021,21,SITE01,38,YEARS,<65,1,F,WHITE,NOT HISPANIC OR LATINO,USA,Treatment A,TRT01,Treatment A,TRT01,Treatment A,1,Treatment A,1,2025-02-22,2025-04-14,2025-02-22,2025-04-14,Y,Y,Y,Y,2025-02-22,Y
CLIN-2025-042,CLIN-2025-042-SITE02-0022,22,SITE02,43,YEARS,<65,1,M,WHITE,HISPANIC OR LATINO,USA,Treatment B,TRT02,Treatment B,TRT02,Treatment B,2,Treatment B,2,2025-03-08,2025-05-08,2025-03-08,2025-05-08,Y,Y,N,Y,2025-03-08,Y
CLIN-2025-042,CLIN-2025-042-SITE03-0023,23,SITE03,66,YEARS,>=65,2,F,WHITE,NOT HISPANIC OR LATINO,USA,Treatment A,TRT01,Treatment A,TRT01,Treatment A,1,Treatment A,1,2025-05-17,2025-07-22,2025-05-17,2025-07-22,N,Y,Y,Y,2025-05-17,N
CLIN-2025-042,CLIN-2025-042-SITE04-0024,24,SITE04,23,YEARS,<65,1,M,WHITE,NOT HISPANIC OR LATINO,CAN,Treatment A,TRT01,Treatment A,TRT01,Treatment A,1,Treatment A,1,2025-04-21,2025-06-18,2025-04-21,2025-06-18,N,N,Y,Y,2025-04-21,Y
CLIN-2025-042,CLIN-2025-042-SITE05-0025,25,SITE05,36,YEARS,<65,1,F,WHITE,NOT HISPANIC OR LATINO,GBR,Treatment B,TRT02,Treatment B,TRT02,Treatment B,2,Treatment B,2,2025-06-27,2025-09-03,2025-06-27,2025-09-03,Y,Y,Y,Y,2025-06-27,Y
CLIN-2025-042,CLIN-2025-042-SITE01-0026,26,SITE01,61,YEARS,<65,1,F,BLACK,NOT HISPANIC OR LATINO,USA,Treatment A,TRT01,Treatment A,TRT01,Treatment A,1,Treatment A,1,2025-02-22,2025-04-30,2025-02-22,2025-04-30,Y,Y,Y,Y,2025-02-22,Y
CLIN-2025-042,CLIN-2025-042-SITE02-0027,27,SITE02,60,YEARS,<65,1,M,WHITE,HISPANIC OR LATINO,USA,Treatment A,TRT01,Treatment A,TRT01,Treatment A,1,Treatment A,1,2025-06-22,2025-08-20,2025-06-22,2025-08-20,Y,Y,Y,Y,2025-06-22,Y
CLIN-2025-042,CLIN-2025-042-SITE03-0028,28,SITE03,52,YEARS,<65,1,F,ASIAN,NOT HISPANIC OR LATINO,USA,Treatment A,TRT01,Treatment A,TRT01,Treatment A,1,Treatment A,1,2025-03-03,2025-05-03,2025-03-03,2025-05-03,Y,Y,Y,Y,2025-03-03,Y
CLIN-2025-042,CLIN-2025-042-SITE04-0029,29,SITE04,40,YEARS,<65,1,F,ASIAN,NOT HISPANIC OR LATINO,CAN,Treatment A,TRT01,Treatment A,TRT01,Treatment A,1,Treatment A,1,2025-06-10,2025-08-14,2025-06-10,2025-08-14,Y,Y,Y,Y,2025-06-10,Y
CLIN-2025-042,CLIN-2025-042-SITE05-0030,30,SITE05,60,YEARS,<65,1,F,WHITE,HISPANIC OR LATINO,GBR,Placebo,PBO,Placebo,PBO,Placebo,3,Placebo,3,2025-06-27,2025-08-21,2025-06-27,2025-08-21,Y,Y,Y,Y,2025-06-27,N
CLIN-2025-042,CLIN-2025-042-SITE01-0031,31,SITE01,72,YEARS,>=65,2,M,BLACK,NOT HISPANIC OR LATINO,USA,Placebo,PBO,Placebo,PBO,Placebo,3,Placebo,3,2025-06-16,2025-08-22,2025-06-16,2025-08-22,Y,Y,Y,Y,2025-06-16,Y
CLIN-2025-042,CLIN-2025-042-SITE02-0032,32,SITE02,52,YEARS,<65,1,M,BLACK,HISPANIC OR LATINO,USA,Treatment B,TRT02,Treatment B,TRT02,Treatment B,2,Treatment B,2,2025-02-16,2025-04-20,2025-02-16,2025-04-20,N,Y,Y,Y,2025-02-16,Y
CLIN-2025-042,CLIN-2025-042-SITE03-0033,33,SITE03,75,YEARS,>=65,2,F,WHITE,HISPANIC OR LATINO,USA,Placebo,PBO,Placebo,PBO,Placebo,3,Placebo,3,2025-06-08,2025-07-28,2025-06-08,2025-07-28,N,Y,Y,Y,2025-06-08,Y
CLIN-2025-042,CLIN-2025-042-SITE04-0034,34,SITE04,47,YEARS,<65,1,F,BLACK,NOT HISPANIC OR LATINO,CAN,Placebo,PBO,Placebo,PBO,Placebo,3,Placebo,3,2025-03-06,2025-05-02,2025-03-06,2025-05-02,Y,Y,Y,Y,2025-03-06,Y
CLIN-2025-042,CLIN-2025-042-SITE05-0035,35,SITE05,45,YEARS,<65,1,M,WHITE,NOT HISPANIC OR LATINO,GBR,Treatment B,TRT02,Treatment B,TRT02,Treatment B,2,Treatment B,2,2025-03-16,2025-05-20,2025-03-16,2025-05-20,Y,Y,Y,Y,2025-03-16,Y
CLIN-2025-042,CLIN-2025-042-SITE01-0036,36,SITE01,42,YEARS,<65,1,M,WHITE,NOT HISPANIC OR LATINO,USA,Placebo,PBO,Placebo,PBO,Placebo,3,Placebo,3,2025-05-11,2025-07-05,2025-05-11,2025-07-05,Y,Y,Y,Y,2025-05-11,Y
CLIN-2025-042,CLIN-2025-042-SITE02-0037,37,SITE02,41,YEARS,<65,1,F,WHITE,NOT HISPANIC OR LATINO,USA,Treatment B,TRT02,Treatment B,TRT02,Treatment B,2,Treatment B,2,2025-04-19,2025-06-10,2025-04-19,2025-06-10,Y,Y,Y,Y,2025-04-19,Y
CLIN-2025-042,CLIN-2025-042-SITE03-0038,38,SITE03,37,YEARS,<65,1,F,BLACK,HISPANIC OR LATINO,USA,Treatment B,TRT02,Treatment B,TRT02,Treatment B,2,Treatment B,2,2025-02-01,2025-04-01,2025-02-01,2025-04-01,Y,Y,Y,Y,2025-02-01,N
CLIN-2025-042,CLIN-2025-042-SITE04-0039,39,SITE04,45,YEARS,<65,1,F,ASIAN,NOT HISPANIC OR LATINO,CAN,Treatment A,TRT01,Treatment A,TRT01,Treatment A,1,Treatment A,1,2025-02-15,2025-04-20,2025-02-15,2025-04-20,Y,Y,Y,Y,2025-02-15,N
CLIN-2025-042,CLIN-2025-042-SITE05-0040,40,SITE05,27,YEARS,<65,1,F,WHITE,NOT HISPANIC OR LATINO,GBR,Treatment B,TRT02,Treatment B,TRT02,Treatment B,2,Treatment B,2,2025-02-26,2025-05-02,2025-02-26,2025-05-02,Y,Y,Y,Y,2025-02-26,Y
CLIN-2025-042,CLIN-2025-042-SITE01-0041,41,SITE01,36,YEARS,<65,1,M,ASIAN,HISPANIC OR LATINO,USA,Treatment A,TRT01,Treatment A,TRT01,Treatment A,1,Treatment A,1,2025-06-15,2025-08-16,2025-06-15,2025-08-16,N,Y,Y,Y,2025-06-15,N
CLIN-2025-042,CLIN-2025-042-SITE02-0042,42,SITE02,43,YEARS,<65,1,M,WHITE,NOT HISPANIC OR LATINO,USA,Treatment B,TRT02,Treatment B,TRT02,Treatment B,2,Treatment B,2,2025-02-15,2025-04-24,2025-02-15,2025-04-24,Y,Y,Y,Y,2025-02-15,Y
CLIN-2025-042,CLIN-2025-042-SITE03-0043,43,SITE03,37,YEARS,<65,1,M,WHITE,HISPANIC OR LATINO,USA,Treatment B,TRT02,Treatment B,TRT02,Treatment B,2,Treatment B,2,2025-04-10,2025-06-15,2025-04-10,2025-06-15,Y,Y,Y,Y,2025-04-10,Y
CLIN-2025-042,CLIN-2025-042-SITE04-0044,44,SITE04,61,YEARS,<65,1,M,ASIAN,NOT HISPANIC OR LATINO,CAN,Treatment B,TRT02,Treatment B,TRT02,Treatment B,2,Treatment B,2,2025-05-02,2025-06-25,2025-05-02,2025-06-25,Y,Y,Y,Y,2025-05-02,Y
CLIN-2025-042,CLIN-2025-042-SITE05-0045,45,SITE05,45,YEARS,<65,1,F,WHITE,NOT HISPANIC OR LATINO,GBR,Treatment B,TRT02,Treatment B,TRT02,Treatment B,2,Treatment B,2,2025-04-23,2025-06-19,2025-04-23,2025-06-19,Y,Y,N,Y,2025-04-23,Y
CLIN-2025-042,CLIN-2025-042-SITE01-0046,46,SITE01,51,YEARS,<65,1,M,WHITE,NOT HISPANIC OR LATINO,USA,Treatment A,TRT01,Treatment A,TRT01,Treatment A,1,Treatment A,1,2025-04-16,2025-06-09,2025-04-16,2025-06-09,Y,Y,Y,Y,2025-04-16,Y
CLIN-2025-042,CLIN-2025-042-SITE02-0047,47,SITE02,40,YEARS,<65,1,M,WHITE,NOT HISPANIC OR LATINO,USA,Treatment B,TRT02,Treatment B,TRT02,Treatment B,2,Treatment B,2,2025-05-23,2025-07-12,2025-05-23,2025-07-12,Y,Y,Y,Y,2025-05-23,N
CLIN-2025-042,CLIN-2025-042-SITE03-0048,48,SITE03,41,YEARS,<65,1,M,WHITE,NOT HISPANIC OR LATINO,USA,Treatment B,TRT02,Treatment B,TRT02,Treatment B,2,Treatment B,2,2025-03-24,2025-05-15,2025-03-24,2025-05-15,Y,Y,Y,Y,2025-03-24,Y
CLIN-2025-042,CLIN-2025-042-SITE04-0049,49,SITE04,51,YEARS,<65,1,M,WHITE,NOT HISPANIC OR LATINO,CAN,Treatment A,TRT01,Treatment A,TRT01,Treatment A,1,Treatment A,1,2025-03-24,2025-05-27,2025-03-24,2025-05-27,Y,Y,Y,Y,2025-03-24,N
CLIN-2025-042,CLIN-2025-042-SITE05-0050,50,SITE05,56,YEARS,<65,1,M,WHITE,HISPANIC OR LATINO,GBR,Treatment B,TRT02,Treatment B,TRT02,Treatment B,2,Treatment B,2,2025-02-22,2025-04-16,2025-02-22,2025-04-16,Y,Y,Y,Y,2025-02-22,Y
CLIN-2025-042,CLIN-2025-042-SITE01-0051,51,SITE01,66,YEARS,>=65,2,M,WHITE,NOT HISPANIC OR LATINO,USA,Treatment B,TRT02,Treatment B,TRT02,Treatment B,2,Treatment B,2,2025-03-24,2025-05-16,2025-03-24,2025-05-16,Y,Y,N,Y,2025-03-24,Y
CLIN-2025-042,CLIN-2025-042-SITE02-0052,52,SITE02,23,YEARS,<65,1,M,WHITE,NOT HISPANIC OR LATINO,USA,Treatment B,TRT02,Treatment B,TRT02,Treatment B,2,Treatment B,2,2025-01-18,2025-03-24,2025-01-18,2025-03-24,Y,Y,Y,Y,2025-01-18,N
CLIN-2025-042,CLIN-2025-042-SITE03-0053,53,SITE03,35,YEARS,<65,1,M,WHITE,NOT HISPANIC OR LATINO,USA,Treatment B,TRT02,Treatment B,TRT02,Treatment B,2,Treatment B,2,2025-04-08,2025-06-08,2025-04-08,2025-06-08,Y,Y,Y,Y,2025-04-08,Y
CLIN-2025-042,CLIN-2025-042-SITE04-0054,54,SITE04,75,YEARS,>=65,2,F,WHITE,NOT HISPANIC OR LATINO,CAN,Treatment A,TRT01,Treatment A,TRT01,Treatment A,1,Treatment A,1,2025-06-24,2025-08-20,2025-06-24,2025-08-20,Y,Y,Y,Y,2025-06-24,Y
CLIN-2025-042,CLIN-2025-042-SITE05-0055,55,SITE05,63,YEARS,<65,1,F,WHITE,NOT HISPANIC OR LATINO,GBR,Treatment A,TRT01,Treatment A,TRT01,Treatment A,1,Treatment A,1,2025-05-24,2025-07-31,2025-05-24,2025-07-31,N,N,Y,Y,2025-05-24,Y
CLIN-2025-042,CLIN-2025-042-SITE01-0056,56,SITE01,25,YEARS,<65,1,M,BLACK,NOT HISPANIC OR LATINO,USA,Treatment A,TRT01,Treatment A,TRT01,Treatment A,1,Treatment A,1,2025-05-09,2025-07-06,2025-05-09,2025-07-06,Y,Y,Y,Y,2025-05-09,Y
CLIN-2025-042,CLIN-2025-042-SITE02-0057,57,SITE02,45,YEARS,<65,1,M,WHITE,HISPANIC OR LATINO,USA,Placebo,PBO,Placebo,PBO,Placebo,3,Placebo,3,2025-05-14,2025-07-06,2025-05-14,2025-07-06,Y,Y,Y,Y,2025-05-14,Y
CLIN-2025-042,CLIN-2025-042-SITE03-0058,58,SITE03,52,YEARS,<65,1,M,WHITE,HISPANIC OR LATINO,USA,Treatment B,TRT02,Treatment B,TRT02,Treatment B,2,Treatment B,2,2025-04-23,2025-06-27,2025-04-23,2025-06-27,Y,Y,Y,Y,2025-04-23,Y
CLIN-2025-042,CLIN-2025-042-SITE04-0059,59,SITE04,57,YEARS,<65,1,M,WHITE,HISPANIC OR LATINO,CAN,Placebo,PBO,Placebo,PBO,Placebo,3,Placebo,3,2025-02-20,2025-04-22,2025-02-20,2025-04-22,Y,Y,Y,Y,2025-02-20,Y
CLIN-2025-042,CLIN-2025-042-SITE05-0060,60,SITE05,57,YEARS,<65,1,F,WHITE,NOT HISPANIC OR LATINO,GBR,Treatment B,TRT02,Treatment B,TRT02,Treatment B,2,Treatment B,2,2025-05-06,2025-07-07,2025-05-06,2025-07-07,Y,Y,N,Y,2025-05-06,N
CLIN-2025-042,CLIN-2025-042-SITE01-0061,61,SITE01,73,YEARS,>=65,2,M,WHITE,NOT HISPANIC OR LATINO,USA,Placebo,PBO,Placebo,PBO,Placebo,3,Placebo,3,2025-03-31,2025-05-28,2025-03-31,2025-05-28,Y,Y,Y,Y,2025-03-31,Y
CLIN-2025-042,CLIN-2025-042-SITE02-0062,62,SITE02,60,YEARS,<65,1,F,BLACK,NOT HISPANIC OR LATINO,USA,Treatment A,TRT01,Treatment A,TRT01,Treatment A,1,Treatment A,1,2025-05-17,2025-07-09,2025-05-17,2025-07-09,N,N,Y,Y,2025-05-17,Y
CLIN-2025-042,CLIN-2025-042-SITE03-0063,63,SITE03,59,YEARS,<65,1,F,WHITE,NOT HISPANIC OR LATINO,USA,Placebo,PBO,Placebo,PBO,Placebo,3,Placebo,3,2025-06-30,2025-09-01,2025-06-30,2025-09-01,Y,Y,Y,Y,2025-06-30,Y
CLIN-2025-042,CLIN-2025-042-SITE04-0064,64,SITE04,42,YEARS,<65,1,F,ASIAN,NOT HISPANIC OR LATINO,CAN,Treatment A,TRT01,Treatment A,TRT01,Treatment A,1,Treatment A,1,2025-03-29,2025-05-29,2025-03-29,2025-05-29,Y,Y,Y,Y,2025-03-29,N
CLIN-2025-042,CLIN-2025-042-SITE05-0065,65,SITE05,45,YEARS,<65,1,F,WHITE,NOT HISPANIC OR LATINO,GBR,Treatment A,TRT01,Treatment A,TRT01,Treatment A,1,Treatment A,1,2025-05-31,2025-08-06,2025-05-31,2025-08-06,Y,Y,Y,Y,2025-05-31,Y
CLIN-2025-042,CLIN-2025-042-SITE01-0066,66,SITE01,27,YEARS,<65,1,M,ASIAN,NOT HISPANIC OR LATINO,USA,Placebo,PBO,Placebo,PBO,Placebo,3,Placebo,3,2025-04-10,2025-06-18,2025-04-10,2025-06-18,Y,Y,Y,Y,2025-04-10,Y
CLIN-2025-042,CLIN-2025-042-SITE02-0067,67,SITE02,18,YEARS,<65,1,F,ASIAN,HISPANIC OR LATINO,USA,Treatment A,TRT01,Treatment A,TRT01,Treatment A,1,Treatment A,1,2025-06-22,2025-08-29,2025-06-22,2025-08-29,Y,Y,Y,Y,2025-06-22,Y
CLIN-2025-042,CLIN-2025-042-SITE03-0068,68,SITE03,68,YEARS,>=65,2,M,WHITE,NOT HISPANIC OR LATINO,USA,Treatment B,TRT02,Treatment B,TRT02,Treatment B,2,Treatment B,2,2025-06-04,2025-08-10,2025-06-04,2025-08-10,Y,Y,Y,Y,2025-06-04,Y
CLIN-2025-042,CLIN-2025-042-SITE04-0069,69,SITE04,52,YEARS,<65,1,F,WHITE,HISPANIC OR LATINO,CAN,Treatment A,TRT01,Treatment A,TRT01,Treatment A,1,Treatment A,1,2025-04-29,2025-06-24,2025-04-29,2025-06-24,Y,Y,Y,Y,2025-04-29,Y
CLIN-2025-042,CLIN-2025-042-SITE05-0070,70,SITE05,46,YEARS,<65,1,F,OTHER,NOT HISPANIC OR LATINO,GBR,Placebo,PBO,Placebo,PBO,Placebo,3,Placebo,3,2025-06-29,2025-08-23,2025-06-29,2025-08-23,Y,Y,Y,Y,2025-06-29,Y
CLIN-2025-042,CLIN-2025-042-SITE01-0071,71,SITE01,57,YEARS,<65,1,F,WHITE,NOT HISPANIC OR LATINO,USA,Treatment A,TRT01,Treatment A,TRT01,Treatment A,1,Treatment A,1,2025-04-04,2025-06-03,2025-04-04,2025-06-03,Y,Y,Y,Y,2025-04-04,Y
CLIN-2025-042,CLIN-2025-042-SITE02-0072,72,SITE02,29,YEARS,<65,1,F,WHITE,HISPANIC OR LATINO,USA,Treatment A,TRT01,Treatment A,TRT01,Treatment A,1,Treatment A,1,2025-06-06,2025-07-26,2025-06-06,2025-07-26,Y,Y,Y,Y,2025-06-06,Y
CLIN-2025-042,CLIN-2025-042-SITE03-0073,73,SITE03,43,YEARS,<65,1,F,WHITE,HISPANIC OR LATINO,USA,Treatment A,TRT01,Treatment A,TRT01,Treatment A,1,Treatment A,1,2025-01-26,2025-03-26,2025-01-26,2025-03-26,Y,Y,Y,Y,2025-01-26,Y
CLIN-2025-042,CLIN-2025-042-SITE04-0074,74,SITE04,59,YEARS,<65,1,M,WHITE,NOT HISPANIC OR LATINO,CAN,Treatment A,TRT01,Treatment A,TRT01,Treatment A,1,Treatment A,1,2025-04-14,2025-06-10,2025-04-14,2025-06-10,Y,Y,Y,Y,2025-04-14,N
CLIN-2025-042,CLIN-2025-042-SITE05-0075,75,SITE05,70,YEARS,>=65,2,M,WHITE,NOT HISPANIC OR LATINO,GBR,Placebo,PBO,Placebo,PBO,Placebo,3,Placebo,3,2025-06-18,2025-08-23,2025-06-18,2025-08-23,N,N,Y,Y,2025-06-18,N
CLIN-2025-042,CLIN-2025-042-SITE01-0076,76,SITE01,22,YEARS,<65,1,M,WHITE,NOT HISPANIC OR LATINO,USA,Treatment A,TRT01,Treatment A,TRT01,Treatment A,1,Treatment A,1,2025-05-28,2025-08-03,2025-05-28,2025-08-03,Y,Y,Y,Y,2025-05-28,Y
CLIN-2025-042,CLIN-2025-042-SITE02-0077,77,SITE02,40,YEARS,<65,1,F,BLACK,NOT HISPANIC OR LATINO,USA,Treatment A,TRT01,Treatment A,TRT01,Treatment A,1,Treatment A,1,2025-02-13,2025-04-21,2025-02-13,2025-04-21,Y,Y,Y,Y,2025-02-13,N
CLIN-2025-042,CLIN-2025-042-SITE03-0078,78,SITE03,27,YEARS,<65,1,F,WHITE,HISPANIC OR LATINO,USA,Placebo,PBO,Placebo,PBO,Placebo,3,Placebo,3,2025-01-25,2025-04-01,2025-01-25,2025-04-01,Y,Y,Y,Y,2025-01-25,Y
CLIN-2025-042,CLIN-2025-042-SITE04-0079,79,SITE04,69,YEARS,>=65,2,F,ASIAN,NOT HISPANIC OR LATINO,CAN,Treatment A,TRT01,Treatment A,TRT01,Treatment A,1,Treatment A,1,2025-03-10,2025-05-04,2025-03-10,2025-05-04,Y,Y,Y,Y,2025-03-10,Y
CLIN-2025-042,CLIN-2025-042-SITE05-0080,80,SITE05,48,YEARS,<65,1,M,WHITE,HISPANIC OR LATINO,GBR,Treatment B,TRT02,Treatment B,TRT02,Treatment B,2,Treatment B,2,2025-04-07,2025-06-12,2025-04-07,2025-06-12,Y,Y,Y,Y,2025-04-07,Y
CLIN-2025-042,CLIN-2025-042-SITE01-0081,81,SITE01,21,YEARS,<65,1,F,WHITE,NOT HISPANIC OR LATINO,USA,Treatment A,TRT01,Treatment A,TRT01,Treatment A,1,Treatment A,1,2025-01-18,2025-03-09,2025-01-18,2025-03-09,Y,Y,Y,Y,2025-01-18,Y
CLIN-2025-042,CLIN-2025-042-SITE02-0082,82,SITE02,64,YEARS,<65,1,F,ASIAN,NOT HISPANIC OR LATINO,USA,Treatment B,TRT02,Treatment B,TRT02,Treatment B,2,Treatment B,2,2025-05-12,2025-07-03,2025-05-12,2025-07-03,N,Y,Y,Y,2025-05-12,Y
CLIN-2025-042,CLIN-2025-042-SITE03-0083,83,SITE03,67,YEARS,>=65,2,M,WHITE,NOT HISPANIC OR LATINO,USA,Treatment B,TRT02,Treatment B,TRT02,Treatment B,2,Treatment B,2,2025-03-12,2025-05-17,2025-03-12,2025-05-17,Y,Y,Y,Y,2025-03-12,N
CLIN-2025-042,CLIN-2025-042-SITE04-0084,84,SITE04,58,YEARS,<65,1,F,WHITE,HISPANIC OR LATINO,CAN,Treatment A,TRT01,Treatment A,TRT01,Treatment A,1,Treatment A,1,2025-02-21,2025-04-29,2025-02-21,2025-04-29,Y,Y,Y,Y,2025-02-21,Y
CLIN-2025-042,CLIN-2025-042-SITE05-0085,85,SITE05,41,YEARS,<65,1,M,WHITE,NOT HISPANIC OR LATINO,GBR,Placebo,PBO,Placebo,PBO,Placebo,3,Placebo,3,2025-03-07,2025-05-01,2025-03-07,2025-05-01,Y,Y,N,Y,2025-03-07,N
CLIN-2025-042,CLIN-2025-042-SITE01-0086,86,SITE01,53,YEARS,<65,1,M,WHITE,NOT HISPANIC OR LATINO,USA,Treatment B,TRT02,Treatment B,TRT02,Treatment B,2,Treatment B,2,2025-06-01,2025-08-06,2025-06-01,2025-08-06,Y,Y,Y,Y,2025-06-01,Y
CLIN-2025-042,CLIN-2025-042-SITE02-0087,87,SITE02,25,YEARS,<65,1,M,WHITE,NOT HISPANIC OR LATINO,USA,Placebo,PBO,Placebo,PBO,Placebo,3,Placebo,3,2025-03-08,2025-04-28,2025-03-08,2025-04-28,Y,Y,Y,Y,2025-03-08,Y
CLIN-2025-042,CLIN-2025-042-SITE03-0088,88,SITE03,55,YEARS,<65,1,M,WHITE,NOT HISPANIC OR LATINO,USA,Treatment A,TRT01,Treatment A,TRT01,Treatment A,1,Treatment A,1,2025-04-19,2025-06-18,2025-04-19,2025-06-18,Y,Y,Y,Y,2025-04-19,Y
CLIN-2025-042,CLIN-2025-042-SITE04-0089,89,SITE04,46,YEARS,<65,1,M,WHITE,NOT HISPANIC OR LATINO,CAN,Treatment A,TRT01,Treatment A,TRT01,Treatment A,1,Treatment A,1,2025-04-20,2025-06-11,2025-04-20,2025-06-11,N,N,Y,Y,2025-04-20,Y
CLIN-2025-042,CLIN-2025-042-SITE05-0090,90,SITE05,50,YEARS,<65,1,M,WHITE,NOT HISPANIC OR LATINO,GBR,Treatment A,TRT01,Treatment A,TRT01,Treatment A,1,Treatment A,1,2025-07-03,2025-08-27,2025-07-03,2025-08-27,Y,Y,Y,Y,2025-07-03,Y
CLIN-2025-042,CLIN-2025-042-SITE01-0091,91,SITE01,44,YEARS,<65,1,M,BLACK,HISPANIC OR LATINO,USA,Treatment A,TRT01,Treatment A,TRT01,Treatment A,1,Treatment A,1,2025-04-02,2025-06-03,2025-04-02,2025-06-03,Y,Y,Y,Y,2025-04-02,Y
CLIN-2025-042,CLIN-2025-042-SITE02-0092,92,SITE02,31,YEARS,<65,1,M,ASIAN,NOT HISPANIC OR LATINO,USA,Treatment A,TRT01,Treatment A,TRT01,Treatment A,1,Treatment A,1,2025-03-03,2025-05-08,2025-03-03,2025-05-08,Y,Y,N,Y,2025-03-03,Y
CLIN-2025-042,CLIN-2025-042-SITE03-0093,93,SITE03,35,YEARS,<65,1,F,BLACK,NOT HISPANIC OR LATINO,USA,Treatment A,TRT01,Treatment A,TRT01,Treatment A,1,Treatment A,1,2025-03-02,2025-05-04,2025-03-02,2025-05-04,Y,Y,Y,Y,2025-03-02,Y
CLIN-2025-042,CLIN-2025-042-SITE04-0094,94,SITE04,18,YEARS,<65,1,F,WHITE,NOT HISPANIC OR LATINO,CAN,Treatment A,TRT01,Treatment A,TRT01,Treatment A,1,Treatment A,1,2025-01-21,2025-03-14,2025-01-21,2025-03-14,Y,Y,Y,Y,2025-01-21,Y
CLIN-2025-042,CLIN-2025-042-SITE05-0095,95,SITE05,49,YEARS,<65,1,M,WHITE,NOT HISPANIC OR LATINO,GBR,Treatment A,TRT01,Treatment A,TRT01,Treatment A,1,Treatment A,1,2025-02-21,2025-04-14,2025-02-21,2025-04-14,Y,Y,Y,Y,2025-02-21,Y
CLIN-2025-042,CLIN-2025-042-SITE01-0096,96,SITE01,37,YEARS,<65,1,M,WHITE,NOT HISPANIC OR LATINO,USA,Placebo,PBO,Placebo,PBO,Placebo,3,Placebo,3,2025-04-10,2025-06-10,2025-04-10,2025-06-10,N,Y,Y,Y,2025-04-10,Y
CLIN-2025-042,CLIN-2025-042-SITE02-0097,97,SITE02,75,YEARS,>=65,2,M,BLACK,NOT HISPANIC OR LATINO,USA,Treatment A,TRT01,Treatment A,TRT01,Treatment A,1,Treatment A,1,2025-05-03,2025-07-09,2025-05-03,2025-07-09,Y,Y,Y,Y,2025-05-03,Y
CLIN-2025-042,CLIN-2025-042-SITE03-0098,98,SITE03,60,YEARS,<65,1,M,WHITE,NOT HISPANIC OR LATINO,USA,Treatment A,TRT01,Treatment A,TRT01,Treatment A,1,Treatment A,1,2025-07-02,2025-08-25,2025-07-02,2025-08-25,Y,Y,Y,Y,2025-07-02,Y
CLIN-2025-042,CLIN-2025-042-SITE04-0099,99,SITE04,39,YEARS,<65,1,F,WHITE,HISPANIC OR LATINO,CAN,Treatment A,TRT01,Treatment A,TRT01,Treatment A,1,Treatment A,1,2025-05-03,2025-06-27,2025-05-03,2025-06-27,Y,Y,Y,Y,2025-05-03,Y
CLIN-2025-042,CLIN-2025-042-SITE05-0100,100,SITE05,41,YEARS,<65,1,M,WHITE,HISPANIC OR LATINO,GBR,Treatment A,TRT01,Treatment A,TRT01,Treatment A,1,Treatment A,1,2025-03-30,2025-05-27,2025-03-30,2025-05-27,Y,Y,Y,Y,2025-03-30,N
CLIN-2025-042,CLIN-2025-042-SITE01-0101,101,SITE01,44,YEARS,<65,1,F,BLACK,HISPANIC OR LATINO,USA,Placebo,PBO,Placebo,PBO,Placebo,3,Placebo,3,2025-01-20,2025-03-12,2025-01-20,2025-03-12,Y,Y,Y,Y,2025-01-20,Y
CLIN-2025-042,CLIN-2025-042-SITE02-0102,102,SITE02,51,YEARS,<65,1,F,WHITE,NOT HISPANIC OR LATINO,USA,Treatment B,TRT02,Treatment B,TRT02,Treatment B,2,Treatment B,2,2025-05-30,2025-08-06,2025-05-30,2025-08-06,N,N,Y,Y,2025-05-30,N
CLIN-2025-042,CLIN-2025-042-SITE03-0103,103,SITE03,59,YEARS,<65,1,F,WHITE,NOT HISPANIC OR LATINO,USA,Treatment B,TRT02,Treatment B,TRT02,Treatment B,2,Treatment B,2,2025-02-03,2025-04-10,2025-02-03,2025-04-10,Y,Y,Y,Y,2025-02-03,Y
CLIN-2025-042,CLIN-2025-042-SITE04-0104,104,SITE04,56,YEARS,<65,1,F,WHITE,NOT HISPANIC OR LATINO,CAN,Placebo,PBO,Placebo,PBO,Placebo,3,Placebo,3,2025-04-01,2025-05-31,2025-04-01,2025-05-31,Y,Y,Y,Y,2025-04-01,N
CLIN-2025-042,CLIN-2025-042-SITE05-0105,105,SITE05,36,YEARS,<65,1,M,WHITE,NOT HISPANIC OR LATINO,GBR,Treatment B,TRT02,Treatment B,TRT02,Treatment B,2,Treatment B,2,2025-06-01,2025-08-01,2025-06-01,2025-08-01,N,N,Y,Y,2025-06-01,N
CLIN-2025-042,CLIN-2025-042-SITE01-0106,106,SITE01,47,YEARS,<65,1,M,WHITE,NOT HISPANIC OR LATINO,USA,Treatment A,TRT01,Treatment A,TRT01,Treatment A,1,Treatment A,1,2025-06-06,2025-07-31,2025-06-06,2025-07-31,Y,Y,Y,Y,2025-06-06,Y
CLIN-2025-042,CLIN-2025-042-SITE02-0107,107,SITE02,55,YEARS,<65,1,F,BLACK,NOT HISPANIC OR LATINO,USA,Placebo,PBO,Placebo,PBO,Placebo,3,Placebo,3,2025-07-11,2025-09-12,2025-07-11,2025-09-12,Y,Y,Y,Y,2025-07-11,Y
CLIN-2025-042,CLIN-2025-042-SITE03-0108,108,SITE03,42,YEARS,<65,1,F,BLACK,NOT HISPANIC OR LATINO,USA,Treatment B,TRT02,Treatment B,TRT02,Treatment B,2,Treatment B,2,2025-01-25,2025-03-24,2025-01-25,2025-03-24,Y,Y,Y,Y,2025-01-25,Y
CLIN-2025-042,CLIN-2025-042-SITE04-0109,109,SITE04,58,YEARS,<65,1,F,WHITE,NOT HISPANIC OR LATINO,CAN,Treatment A,TRT01,Treatment A,TRT01,Treatment A,1,Treatment A,1,2025-04-07,2025-06-09,2025-04-07,2025-06-09,Y,Y,Y,Y,2025-04-07,Y
CLIN-2025-042,CLIN-2025-042-SITE05-0110,110,SITE05,40,YEARS,<65,1,F,WHITE,HISPANIC OR LATINO,GBR,Treatment B,TRT02,Treatment B,TRT02,Treatment B,2,Treatment B,2,2025-01-28,2025-04-06,2025-01-28,2025-04-06,Y,Y,Y,Y,2025-01-28,Y
CLIN-2025-042,CLIN-2025-042-SITE01-0111,111,SITE01,33,YEARS,<65,1,M,WHITE,NOT HISPANIC OR LATINO,USA,Treatment B,TRT02,Treatment B,TRT02,Treatment B,2,Treatment B,2,2025-06-08,2025-07-28,2025-06-08,2025-07-28,Y,Y,Y,Y,2025-06-08,Y
CLIN-2025-042,CLIN-2025-042-SITE02-0112,112,SITE02,45,YEARS,<65,1,F,BLACK,HISPANIC OR LATINO,USA,Treatment B,TRT02,Treatment B,TRT02,Treatment B,2,Treatment B,2,2025-03-22,2025-05-17,2025-03-22,2025-05-17,Y,Y,Y,Y,2025-03-22,Y
CLIN-2025-042,CLIN-2025-042-SITE03-0113,113,SITE03,57,YEARS,<65,1,F,BLACK,NOT HISPANIC OR LATINO,USA,Placebo,PBO,Placebo,PBO,Placebo,3,Placebo,3,2025-02-16,2025-04-26,2025-02-16,2025-04-26,Y,Y,Y,Y,2025-02-16,Y
CLIN-2025-042,CLIN-2025-042-SITE04-0114,114,SITE04,60,YEARS,<65,1,M,BLACK,NOT HISPANIC OR LATINO,CAN,Treatment A,TRT01,Treatment A,TRT01,Treatment A,1,Treatment A,1,2025-03-21,2025-05-19,2025-03-21,2025-05-19,Y,Y,Y,Y,2025-03-21,Y
CLIN-2025-042,CLIN-2025-042-SITE05-0115,115,SITE05,45,YEARS,<65,1,M,WHITE,NOT HISPANIC OR LATINO,GBR,Treatment B,TRT02,Treatment B,TRT02,Treatment B,2,Treatment B,2,2025-03-02,2025-04-24,2025-03-02,2025-04-24,Y,Y,Y,Y,2025-03-02,Y
CLIN-2025-042,CLIN-2025-042-SITE01-0116,116,SITE01,75,YEARS,>=65,2,M,WHITE,NOT HISPANIC OR LATINO,USA,Treatment B,TRT02,Treatment B,TRT02,Treatment B,2,Treatment B,2,2025-07-06,2025-08-26,2025-07-06,2025-08-26,Y,Y,Y,Y,2025-07-06,N
CLIN-2025-042,CLIN-2025-042-SITE02-0117,117,SITE02,43,YEARS,<65,1,F,WHITE,NOT HISPANIC OR LATINO,USA,Treatment B,TRT02,Treatment B,TRT02,Treatment B,2,Treatment B,2,2025-02-10,2025-04-05,2025-02-10,2025-04-05,Y,Y,N,Y,2025-02-10,Y
CLIN-2025-042,CLIN-2025-042-SITE03-0118,118,SITE03,49,YEARS,<65,1,F,WHITE,HISPANIC OR LATINO,USA,Treatment A,TRT01,Treatment A,TRT01,Treatment A,1,Treatment A,1,2025-05-01,2025-07-01,2025-05-01,2025-07-01,Y,Y,Y,Y,2025-05-01,Y
CLIN-2025-042,CLIN-2025-042-SITE04-0119,119,SITE04,71,YEARS,>=65,2,F,ASIAN,NOT HISPANIC OR LATINO,CAN,Treatment A,TRT01,Treatment A,TRT01,Treatment A,1,Treatment A,1,2025-04-28,2025-06-27,2025-04-28,2025-06-27,Y,Y,Y,Y,2025-04-28,Y
CLIN-2025-042,CLIN-2025-042-SITE05-0120,120,SITE05,53,YEARS,<65,1,M,BLACK,NOT HISPANIC OR LATINO,GBR,Treatment A,TRT01,Treatment A,TRT01,Treatment A,1,Treatment A,1,2025-04-16,2025-06-13,2025-04-16,2025-06-13,Y,Y,Y,Y,2025-04-16,Y
CLIN-2025-042,CLIN-2025-042-SITE01-0121,121,SITE01,45,YEARS,<65,1,M,WHITE,NOT HISPANIC OR LATINO,USA,Placebo,PBO,Placebo,PBO,Placebo,3,Placebo,3,2025-06-14,2025-08-03,2025-06-14,2025-08-03,Y,Y,Y,Y,2025-06-14,N
CLIN-2025-042,CLIN-2025-042-SITE02-0122,122,SITE02,61,YEARS,<65,1,F,WHITE,NOT HISPANIC OR LATINO,USA,Treatment A,TRT01,Treatment A,TRT01,Treatment A,1,Treatment A,1,2025-05-31,2025-07-29,2025-05-31,2025-07-29,N,N,Y,Y,2025-05-31,N
CLIN-2025-042,CLIN-2025-042-SITE03-0123,123,SITE03,21,YEARS,<65,1,F,ASIAN,NOT HISPANIC OR LATINO,USA,Treatment A,TRT01,Treatment A,TRT01,Treatment A,1,Treatment A,1,2025-02-08,2025-04-09,2025-02-08,2025-04-09,Y,Y,Y,Y,2025-02-08,N
CLIN-2025-042,CLIN-2025-042-SITE04-0124,124,SITE04,18,YEARS,<65,1,M,WHITE,HISPANIC OR LATINO,CAN,Treatment A,TRT01,Treatment A,TRT01,Treatment A,1,Treatment A,1,2025-07-12,2025-09-06,2025-07-12,2025-09-06,Y,Y,N,Y,2025-07-12,Y
CLIN-2025-042,CLIN-2025-042-SITE05-0125,125,SITE05,40,YEARS,<65,1,F,WHITE,NOT HISPANIC OR LATINO,GBR,Treatment B,TRT02,Treatment B,TRT02,Treatment B,2,Treatment B,2,2025-06-13,2025-08-19,2025-06-13,2025-08-19,Y,Y,Y,Y,2025-06-13,Y
CLIN-2025-042,CLIN-2025-042-SITE01-0126,126,SITE01,28,YEARS,<65,1,M,WHITE,NOT HISPANIC OR LATINO,USA,Treatment B,TRT02,Treatment B,TRT02,Treatment B,2,Treatment B,2,2025-01-15,2025-03-18,2025-01-15,2025-03-18,Y,Y,Y,Y,2025-01-15,Y
CLIN-2025-042,CLIN-2025-042-SITE02-0127,127,SITE02,75,YEARS,>=65,2,M,WHITE,NOT HISPANIC OR LATINO,USA,Treatment A,TRT01,Treatment A,TRT01,Treatment A,1,Treatment A,1,2025-06-21,2025-08-26,2025-06-21,2025-08-26,Y,Y,Y,Y,2025-06-21,Y
CLIN-2025-042,CLIN-2025-042-SITE03-0128,128,SITE03,28,YEARS,<65,1,M,BLACK,NOT HISPANIC OR LATINO,USA,Treatment B,TRT02,Treatment B,TRT02,Treatment B,2,Treatment B,2,2025-05-07,2025-07-13,2025-05-07,2025-07-13,Y,Y,Y,Y,2025-05-07,N
CLIN-2025-042,CLIN-2025-042-SITE04-0129,129,SITE04,52,YEARS,<65,1,F,WHITE,HISPANIC OR LATINO,CAN,Treatment A,TRT01,Treatment A,TRT01,Treatment A,1,Treatment A,1,2025-03-10,2025-05-05,2025-03-10,2025-05-05,Y,Y,Y,Y,2025-03-10,Y
CLIN-2025-042,CLIN-2025-042-SITE05-0130,130,SITE05,40,YEARS,<65,1,F,WHITE,NOT HISPANIC OR LATINO,GBR,Placebo,PBO,Placebo,PBO,Placebo,3,Placebo,3,2025-02-15,2025-04-23,2025-02-15,2025-04-23,Y,Y,Y,Y,2025-02-15,Y
CLIN-2025-042,CLIN-2025-042-SITE01-0131,131,SITE01,47,YEARS,<65,1,F,BLACK,NOT HISPANIC OR LATINO,USA,Treatment A,TRT01,Treatment A,TRT01,Treatment A,1,Treatment A,1,2025-03-27,2025-05-30,2025-03-27,2025-05-30,Y,Y,Y,Y,2025-03-27,Y
CLIN-2025-042,CLIN-2025-042-SITE02-0132,132,SITE02,59,YEARS,<65,1,F,WHITE,NOT HISPANIC OR LATINO,USA,Placebo,PBO,Placebo,PBO,Placebo,3,Placebo,3,2025-02-15,2025-04-19,2025-02-15,2025-04-19,Y,Y,Y,Y,2025-02-15,Y
CLIN-2025-042,CLIN-2025-042-SITE03-0133,133,SITE03,65,YEARS,>=65,2,M,ASIAN,HISPANIC OR LATINO,USA,Treatment A,TRT01,Treatment A,TRT01,Treatment A,1,Treatment A,1,2025-03-10,2025-05-14,2025-03-10,2025-05-14,Y,Y,Y,Y,2025-03-10,Y
CLIN-2025-042,CLIN-2025-042-SITE04-0134,134,SITE04,56,YEARS,<65,1,F,ASIAN,NOT HISPANIC OR LATINO,CAN,Placebo,PBO,Placebo,PBO,Placebo,3,Placebo,3,2025-02-12,2025-04-20,2025-02-12,2025-04-20,Y,Y,Y,Y,2025-02-12,Y
CLIN-2025-042,CLIN-2025-042-SITE05-0135,135,SITE05,56,YEARS,<65,1,F,WHITE,NOT HISPANIC OR LATINO,GBR,Treatment A,TRT01,Treatment A,TRT01,Treatment A,1,Treatment A,1,2025-05-24,2025-07-15,2025-05-24,2025-07-15,Y,Y,N,Y,2025-05-24,Y
CLIN-2025-042,CLIN-2025-042-SITE01-0136,136,SITE01,23,YEARS,<65,1,F,BLACK,NOT HISPANIC OR LATINO,USA,Treatment B,TRT02,Treatment B,TRT02,Treatment B,2,Treatment B,2,2025-07-05,2025-08-26,2025-07-05,2025-08-26,Y,Y,Y,Y,2025-07-05,Y
CLIN-2025-042,CLIN-2025-042-SITE02-0137,137,SITE02,44,YEARS,<65,1,M,WHITE,NOT HISPANIC OR LATINO,USA,Placebo,PBO,Placebo,PBO,Placebo,3,Placebo,3,2025-05-14,2025-07-16,2025-05-14,2025-07-16,Y,Y,Y,Y,2025-05-14,Y
CLIN-2025-042,CLIN-2025-042-SITE03-0138,138,SITE03,24,YEARS,<65,1,M,WHITE,NOT HISPANIC OR LATINO,USA,Treatment B,TRT02,Treatment B,TRT02,Treatment B,2,Treatment B,2,2025-02-08,2025-04-05,2025-02-08,2025-04-05,Y,Y,Y,Y,2025-02-08,Y
CLIN-2025-042,CLIN-2025-042-SITE04-0139,139,SITE04,59,YEARS,<65,1,F,WHITE,NOT HISPANIC OR LATINO,CAN,Treatment A,TRT01,Treatment A,TRT01,Treatment A,1,Treatment A,1,2025-02-12,2025-04-15,2025-02-12,2025-04-15,Y,Y,N,Y,2025-02-12,Y
CLIN-2025-042,CLIN-2025-042-SITE05-0140,140,SITE05,53,YEARS,<65,1,M,WHITE,NOT HISPANIC OR LATINO,GBR,Treatment B,TRT02,Treatment B,TRT02,Treatment B,2,Treatment B,2,2025-02-17,2025-04-24,2025-02-17,2025-04-24,Y,Y,N,Y,2025-02-17,N
CLIN-2025-042,CLIN-2025-042-SITE01-0141,141,SITE01,55,YEARS,<65,1,F,WHITE,NOT HISPANIC OR LATINO,USA,Treatment A,TRT01,Treatment A,TRT01,Treatment A,1,Treatment A,1,2025-04-10,2025-06-04,2025-04-10,2025-06-04,Y,Y,Y,Y,2025-04-10,Y
CLIN-2025-042,CLIN-2025-042-SITE02-0142,142,SITE02,25,YEARS,<65,1,M,WHITE,NOT HISPANIC OR LATINO,USA,Placebo,PBO,Placebo,PBO,Placebo,3,Placebo,3,2025-05-16,2025-07-18,2025-05-16,2025-07-18,Y,Y,Y,Y,2025-05-16,Y
CLIN-2025-042,CLIN-2025-042-SITE03-0143,143,SITE03,22,YEARS,<65,1,M,WHITE,NOT HISPANIC OR LATINO,USA,Treatment A,TRT01,Treatment A,TRT01,Treatment A,1,Treatment A,1,2025-02-19,2025-04-28,2025-02-19,2025-04-28,Y,Y,Y,Y,2025-02-19,Y
CLIN-2025-042,CLIN-2025-042-SITE04-0144,144,SITE04,33,YEARS,<65,1,M,OTHER,NOT HISPANIC OR LATINO,CAN,Treatment A,TRT01,Treatment A,TRT01,Treatment A,1,Treatment A,1,2025-03-09,2025-04-29,2025-03-09,2025-04-29,Y,Y,Y,Y,2025-03-09,Y
CLIN-2025-042,CLIN-2025-042-SITE05-0145,145,SITE05,36,YEARS,<65,1,M,WHITE,NOT HISPANIC OR LATINO,GBR,Treatment B,TRT02,Treatment B,TRT02,Treatment B,2,Treatment B,2,2025-02-19,2025-04-24,2025-02-19,2025-04-24,Y,Y,Y,Y,2025-02-19,N
CLIN-2025-042,CLIN-2025-042-SITE01-0146,146,SITE01,46,YEARS,<65,1,M,WHITE,HISPANIC OR LATINO,USA,Treatment A,TRT01,Treatment A,TRT01,Treatment A,1,Treatment A,1,2025-06-17,2025-08-07,2025-06-17,2025-08-07,Y,Y,Y,Y,2025-06-17,Y
CLIN-2025-042,CLIN-2025-042-SITE02-0147,147,SITE02,55,YEARS,<65,1,M,BLACK,NOT HISPANIC OR LATINO,USA,Treatment B,TRT02,Treatment B,TRT02,Treatment B,2,Treatment B,2,2025-07-04,2025-08-30,2025-07-04,2025-08-30,Y,Y,Y,Y,2025-07-04,Y
CLIN-2025-042,CLIN-2025-042-SITE03-0148,148,SITE03,36,YEARS,<65,1,M,WHITE,NOT HISPANIC OR LATINO,USA,Treatment A,TRT01,Treatment A,TRT01,Treatment A,1,Treatment A,1,2025-04-22,2025-06-22,2025-04-22,2025-06-22,Y,Y,Y,Y,2025-04-22,Y
CLIN-2025-042,CLIN-2025-042-SITE04-0149,149,SITE04,60,YEARS,<65,1,M,BLACK,HISPANIC OR LATINO,CAN,Treatment A,TRT01,Treatment A,TRT01,Treatment A,1,Treatment A,1,2025-03-29,2025-06-03,2025-03-29,2025-06-03,Y,Y,Y,Y,2025-03-29,Y
CLIN-2025-042,CLIN-2025-042-SITE05-0150,150,SITE05,46,YEARS,<65,1,F,WHITE,NOT HISPANIC OR LATINO,GBR,Treatment B,TRT02,Treatment B,TRT02,Treatment B,2,Treatment B,2,2025-05-12,2025-07-16,2025-05-12,2025-07-16,Y,Y,Y,Y,2025-05-12,Y
CLIN-2025-042,CLIN-2025-042-SITE01-0151,151,SITE01,57,YEARS,<65,1,F,WHITE,NOT HISPANIC OR LATINO,USA,Treatment A,TRT01,Treatment A,TRT01,Treatment A,1,Treatment A,1,2025-06-17,2025-08-14,2025-06-17,2025-08-14,Y,Y,Y,Y,2025-06-17,Y
CLIN-2025-042,CLIN-2025-042-SITE02-0152,152,SITE02,47,YEARS,<65,1,F,ASIAN,NOT HISPANIC OR LATINO,USA,Treatment A,TRT01,Treatment A,TRT01,Treatment A,1,Treatment A,1,2025-07-09,2025-09-04,2025-07-09,2025-09-04,Y,Y,Y,Y,2025-07-09,Y
CLIN-2025-042,CLIN-2025-042-SITE03-0153,153,SITE03,24,YEARS,<65,1,M,WHITE,HISPANIC OR LATINO,USA,Placebo,PBO,Placebo,PBO,Placebo,3,Placebo,3,2025-06-30,2025-08-21,2025-06-30,2025-08-21,Y,Y,Y,Y,2025-06-30,Y
CLIN-2025-042,CLIN-2025-042-SITE04-0154,154,SITE04,52,YEARS,<65,1,F,ASIAN,NOT HISPANIC OR LATINO,CAN,Treatment B,TRT02,Treatment B,TRT02,Treatment B,2,Treatment B,2,2025-07-01,2025-08-31,2025-07-01,2025-08-31,Y,Y,Y,Y,2025-07-01,Y
CLIN-2025-042,CLIN-2025-042-SITE05-0155,155,SITE05,60,YEARS,<65,1,F,WHITE,NOT HISPANIC OR LATINO,GBR,Treatment B,TRT02,Treatment B,TRT02,Treatment B,2,Treatment B,2,2025-06-04,2025-08-10,2025-06-04,2025-08-10,Y,Y,Y,Y,2025-06-04,N
CLIN-2025-042,CLIN-2025-042-SITE01-0156,156,SITE01,42,YEARS,<65,1,M,ASIAN,NOT HISPANIC OR LATINO,USA,Placebo,PBO,Placebo,PBO,Placebo,3,Placebo,3,2025-01-27,2025-03-30,2025-01-27,2025-03-30,Y,Y,N,Y,2025-01-27,Y
CLIN-2025-042,CLIN-2025-042-SITE02-0157,157,SITE02,75,YEARS,>=65,2,M,ASIAN,NOT HISPANIC OR LATINO,USA,Treatment A,TRT01,Treatment A,TRT01,Treatment A,1,Treatment A,1,2025-02-12,2025-04-19,2025-02-12,2025-04-19,Y,Y,Y,Y,2025-02-12,Y
CLIN-2025-042,CLIN-2025-042-SITE03-0158,158,SITE03,39,YEARS,<65,1,F,BLACK,NOT HISPANIC OR LATINO,USA,Treatment B,TRT02,Treatment B,TRT02,Treatment B,2,Treatment B,2,2025-06-16,2025-08-11,2025-06-16,2025-08-11,Y,Y,Y,Y,2025-06-16,Y
CLIN-2025-042,CLIN-2025-042-SITE04-0159,159,SITE04,18,YEARS,<65,1,M,BLACK,NOT HISPANIC OR LATINO,CAN,Treatment B,TRT02,Treatment B,TRT02,Treatment B,2,Treatment B,2,2025-05-14,2025-07-20,2025-05-14,2025-07-20,Y,Y,Y,Y,2025-05-14,Y
CLIN-2025-042,CLIN-2025-042-SITE05-0160,160,SITE05,26,YEARS,<65,1,M,WHITE,NOT HISPANIC OR LATINO,GBR,Placebo,PBO,Placebo,PBO,Placebo,3,Placebo,3,2025-03-16,2025-05-09,2025-03-16,2025-05-09,Y,Y,Y,Y,2025-03-16,Y
CLIN-2025-042,CLIN-2025-042-SITE01-0161,161,SITE01,43,YEARS,<65,1,F,WHITE,NOT HISPANIC OR LATINO,USA,Placebo,PBO,Placebo,PBO,Placebo,3,Placebo,3,2025-01-25,2025-03-28,2025-01-25,2025-03-28,Y,Y,Y,Y,2025-01-25,Y
CLIN-2025-042,CLIN-2025-042-SITE02-0162,162,SITE02,45,YEARS,<65,1,M,WHITE,NOT HISPANIC OR LATINO,USA,Treatment A,TRT01,Treatment A,TRT01,Treatment A,1,Treatment A,1,2025-05-04,2025-07-02,2025-05-04,2025-07-02,N,Y,Y,Y,2025-05-04,Y
CLIN-2025-042,CLIN-2025-042-SITE03-0163,163,SITE03,26,YEARS,<65,1,F,WHITE,NOT HISPANIC OR LATINO,USA,Placebo,PBO,Placebo,PBO,Placebo,3,Placebo,3,2025-05-14,2025-07-08,2025-05-14,2025-07-08,Y,Y,N,Y,2025-05-14,Y
CLIN-2025-042,CLIN-2025-042-SITE04-0164,164,SITE04,53,YEARS,<65,1,M,WHITE,NOT HISPANIC OR LATINO,CAN,Treatment B,TRT02,Treatment B,TRT02,Treatment B,2,Treatment B,2,2025-05-17,2025-07-15,2025-05-17,2025-07-15,Y,Y,Y,Y,2025-05-17,Y
CLIN-2025-042,CLIN-2025-042-SITE05-0165,165,SITE05,18,YEARS,<65,1,M,WHITE,HISPANIC OR LATINO,GBR,Placebo,PBO,Placebo,PBO,Placebo,3,Placebo,3,2025-01-27,2025-04-01,2025-01-27,2025-04-01,Y,Y,N,Y,2025-01-27,Y
CLIN-2025-042,CLIN-2025-042-SITE01-0166,166,SITE01,31,YEARS,<65,1,F,BLACK,NOT HISPANIC OR LATINO,USA,Treatment A,TRT01,Treatment A,TRT01,Treatment A,1,Treatment A,1,2025-03-31,2025-05-29,2025-03-31,2025-05-29,Y,Y,Y,Y,2025-03-31,Y
CLIN-2025-042,CLIN-2025-042-SITE02-0167,167,SITE02,41,YEARS,<65,1,M,WHITE,NOT HISPANIC OR LATINO,USA,Treatment A,TRT01,Treatment A,TRT01,Treatment A,1,Treatment A,1,2025-05-18,2025-07-21,2025-05-18,2025-07-21,Y,Y,Y,Y,2025-05-18,Y
CLIN-2025-042,CLIN-2025-042-SITE03-0168,168,SITE03,46,YEARS,<65,1,F,WHITE,HISPANIC OR LATINO,USA,Treatment A,TRT01,Treatment A,TRT01,Treatment A,1,Treatment A,1,2025-02-11,2025-04-06,2025-02-11,2025-04-06,Y,Y,N,Y,2025-02-11,N
CLIN-2025-042,CLIN-2025-042-SITE04-0169,169,SITE04,55,YEARS,<65,1,M,WHITE,HISPANIC OR LATINO,CAN,Treatment B,TRT02,Treatment B,TRT02,Treatment B,2,Treatment B,2,2025-05-09,2025-06-30,2025-05-09,2025-06-30,Y,Y,Y,Y,2025-05-09,Y
CLIN-2025-042,CLIN-2025-042-SITE05-0170,170,SITE05,72,YEARS,>=65,2,M,WHITE,NOT HISPANIC OR LATINO,GBR,Treatment B,TRT02,Treatment B,TRT02,Treatment B,2,Treatment B,2,2025-07-01,2025-08-20,2025-07-01,2025-08-20,Y,Y,Y,Y,2025-07-01,Y
CLIN-2025-042,CLIN-2025-042-SITE01-0171,171,SITE01,35,YEARS,<65,1,F,ASIAN,NOT HISPANIC OR LATINO,USA,Treatment A,TRT01,Treatment A,TRT01,Treatment A,1,Treatment A,1,2025-07-03,2025-08-25,2025-07-03,2025-08-25,Y,Y,Y,Y,2025-07-03,Y
CLIN-2025-042,CLIN-2025-042-SITE02-0172,172,SITE02,52,YEARS,<65,1,M,WHITE,HISPANIC OR LATINO,USA,Treatment A,TRT01,Treatment A,TRT01,Treatment A,1,Treatment A,1,2025-02-06,2025-04-06,2025-02-06,2025-04-06,N,N,Y,Y,2025-02-06,Y
CLIN-2025-042,CLIN-2025-042-SITE03-0173,173,SITE03,41,YEARS,<65,1,F,WHITE,NOT HISPANIC OR LATINO,USA,Treatment A,TRT01,Treatment A,TRT01,Treatment A,1,Treatment A,1,2025-04-24,2025-06-14,2025-04-24,2025-06-14,Y,Y,Y,Y,2025-04-24,Y
CLIN-2025-042,CLIN-2025-042-SITE04-0174,174,SITE04,45,YEARS,<65,1,M,WHITE,NOT HISPANIC OR LATINO,CAN,Placebo,PBO,Placebo,PBO,Placebo,3,Placebo,3,2025-01-31,2025-03-29,2025-01-31,2025-03-29,Y,Y,Y,Y,2025-01-31,Y
CLIN-2025-042,CLIN-2025-042-SITE05-0175,175,SITE05,53,YEARS,<65,1,F,WHITE,NOT HISPANIC OR LATINO,GBR,Treatment B,TRT02,Treatment B,TRT02,Treatment B,2,Treatment B,2,2025-03-25,2025-06-01,2025-03-25,2025-06-01,Y,Y,Y,Y,2025-03-25,Y
CLIN-2025-042,CLIN-2025-042-SITE01-0176,176,SITE01,45,YEARS,<65,1,M,BLACK,HISPANIC OR LATINO,USA,Placebo,PBO,Placebo,PBO,Placebo,3,Placebo,3,2025-02-05,2025-03-30,2025-02-05,2025-03-30,N,Y,Y,Y,2025-02-05,Y
CLIN-2025-042,CLIN-2025-042-SITE02-0177,177,SITE02,62,YEARS,<65,1,F,WHITE,NOT HISPANIC OR LATINO,USA,Treatment A,TRT01,Treatment A,TRT01,Treatment A,1,Treatment A,1,2025-01-26,2025-04-02,2025-01-26,2025-04-02,Y,Y,Y,Y,2025-01-26,Y
CLIN-2025-042,CLIN-2025-042-SITE03-0178,178,SITE03,22,YEARS,<65,1,F,WHITE,NOT HISPANIC OR LATINO,USA,Placebo,PBO,Placebo,PBO,Placebo,3,Placebo,3,2025-02-12,2025-04-14,2025-02-12,2025-04-14,Y,Y,Y,Y,2025-02-12,Y
CLIN-2025-042,CLIN-2025-042-SITE04-0179,179,SITE04,68,YEARS,>=65,2,M,BLACK,NOT HISPANIC OR LATINO,CAN,Treatment A,TRT01,Treatment A,TRT01,Treatment A,1,Treatment A,1,2025-06-02,2025-07-22,2025-06-02,2025-07-22,N,Y,Y,Y,2025-06-02,Y
CLIN-2025-042,CLIN-2025-042-SITE05-0180,180,SITE05,44,YEARS,<65,1,M,WHITE,HISPANIC OR LATINO,GBR,Treatment A,TRT01,Treatment A,TRT01,Treatment A,1,Treatment A,1,2025-02-12,2025-04-06,2025-02-12,2025-04-06,Y,Y,Y,Y,2025-02-12,N
CLIN-2025-042,CLIN-2025-042-SITE01-0181,181,SITE01,48,YEARS,<65,1,M,BLACK,NOT HISPANIC OR LATINO,USA,Treatment B,TRT02,Treatment B,TRT02,Treatment B,2,Treatment B,2,2025-06-20,2025-08-19,2025-06-20,2025-08-19,N,N,Y,Y,2025-06-20,Y
CLIN-2025-042,CLIN-2025-042-SITE02-0182,182,SITE02,36,YEARS,<65,1,M,WHITE,HISPANIC OR LATINO,USA,Placebo,PBO,Placebo,PBO,Placebo,3,Placebo,3,2025-04-16,2025-06-19,2025-04-16,2025-06-19,Y,Y,N,Y,2025-04-16,Y
CLIN-2025-042,CLIN-2025-042-SITE03-0183,183,SITE03,59,YEARS,<65,1,M,WHITE,NOT HISPANIC OR LATINO,USA,Treatment A,TRT01,Treatment A,TRT01,Treatment A,1,Treatment A,1,2025-05-25,2025-07-14,2025-05-25,2025-07-14,Y,Y,Y,Y,2025-05-25,Y
CLIN-2025-042,CLIN-2025-042-SITE04-0184,184,SITE04,57,YEARS,<65,1,M,WHITE,NOT HISPANIC OR LATINO,CAN,Treatment B,TRT02,Treatment B,TRT02,Treatment B,2,Treatment B,2,2025-02-01,2025-04-06,2025-02-01,2025-04-06,Y,Y,Y,Y,2025-02-01,Y
CLIN-2025-042,CLIN-2025-042-SITE05-0185,185,SITE05,51,YEARS,<65,1,F,WHITE,NOT HISPANIC OR LATINO,GBR,Treatment A,TRT01,Treatment A,TRT01,Treatment A,1,Treatment A,1,2025-04-17,2025-06-13,2025-04-17,2025-06-13,Y,Y,Y,Y,2025-04-17,Y
CLIN-2025-042,CLIN-2025-042-SITE01-0186,186,SITE01,54,YEARS,<65,1,M,WHITE,NOT HISPANIC OR LATINO,USA,Treatment A,TRT01,Treatment A,TRT01,Treatment A,1,Treatment A,1,2025-03-15,2025-05-06,2025-03-15,2025-05-06,Y,Y,Y,Y,2025-03-15,Y
CLIN-2025-042,CLIN-2025-042-SITE02-0187,187,SITE02,22,YEARS,<65,1,M,WHITE,NOT HISPANIC OR LATINO,USA,Treatment B,TRT02,Treatment B,TRT02,Treatment B,2,Treatment B,2,2025-05-20,2025-07-20,2025-05-20,2025-07-20,Y,Y,N,Y,2025-05-20,Y
CLIN-2025-042,CLIN-2025-042-SITE03-0188,188,SITE03,49,YEARS,<65,1,M,WHITE,NOT HISPANIC OR LATINO,USA,Treatment A,TRT01,Treatment A,TRT01,Treatment A,1,Treatment A,1,2025-05-24,2025-07-20,2025-05-24,2025-07-20,Y,Y,Y,Y,2025-05-24,Y
CLIN-2025-042,CLIN-2025-042-SITE04-0189,189,SITE04,21,YEARS,<65,1,M,BLACK,NOT HISPANIC OR LATINO,CAN,Treatment A,TRT01,Treatment A,TRT01,Treatment A,1,Treatment A,1,2025-03-19,2025-05-25,2025-03-19,2025-05-25,Y,Y,Y,Y,2025-03-19,N
CLIN-2025-042,CLIN-2025-042-SITE05-0190,190,SITE05,56,YEARS,<65,1,M,WHITE,NOT HISPANIC OR LATINO,GBR,Treatment B,TRT02,Treatment B,TRT02,Treatment B,2,Treatment B,2,2025-05-30,2025-07-29,2025-05-30,2025-07-29,Y,Y,Y,Y,2025-05-30,Y
CLIN-2025-042,CLIN-2025-042-SITE01-0191,191,SITE01,67,YEARS,>=65,2,M,WHITE,HISPANIC OR LATINO,USA,Placebo,PBO,Placebo,PBO,Placebo,3,Placebo,3,2025-06-23,2025-08-26,2025-06-23,2025-08-26,Y,Y,Y,Y,2025-06-23,Y
CLIN-2025-042,CLIN-2025-042-SITE02-0192,192,SITE02,58,YEARS,<65,1,M,WHITE,NOT HISPANIC OR LATINO,USA,Treatment A,TRT01,Treatment A,TRT01,Treatment A,1,Treatment A,1,2025-01-16,2025-03-07,2025-01-16,2025-03-07,Y,Y,Y,Y,2025-01-16,Y
CLIN-2025-042,CLIN-2025-042-SITE03-0193,193,SITE03,71,YEARS,>=65,2,M,ASIAN,NOT HISPANIC OR LATINO,USA,Treatment A,TRT01,Treatment A,TRT01,Treatment A,1,Treatment A,1,2025-06-13,2025-08-08,2025-06-13,2025-08-08,Y,Y,Y,Y,2025-06-13,Y
CLIN-2025-042,CLIN-2025-042-SITE04-0194,194,SITE04,54,YEARS,<65,1,F,BLACK,NOT HISPANIC OR LATINO,CAN,Treatment A,TRT01,Treatment A,TRT01,Treatment A,1,Treatment A,1,2025-03-04,2025-04-30,2025-03-04,2025-04-30,Y,Y,Y,Y,2025-03-04,Y
CLIN-2025-042,CLIN-2025-042-SITE05-0195,195,SITE05,50,YEARS,<65,1,F,ASIAN,NOT HISPANIC OR LATINO,GBR,Placebo,PBO,Placebo,PBO,Placebo,3,Placebo,3,2025-04-27,2025-06-24,2025-04-27,2025-06-24,Y,Y,Y,Y,2025-04-27,N
CLIN-2025-042,CLIN-2025-042-SITE01-0196,196,SITE01,55,YEARS,<65,1,F,WHITE,NOT HISPANIC OR LATINO,USA,Placebo,PBO,Placebo,PBO,Placebo,3,Placebo,3,2025-01-21,2025-03-22,2025-01-21,2025-03-22,Y,Y,Y,Y,2025-01-21,Y
CLIN-2025-042,CLIN-2025-042-SITE02-0197,197,SITE02,70,YEARS,>=65,2,M,WHITE,NOT HISPANIC OR LATINO,USA,Treatment B,TRT02,Treatment B,TRT02,Treatment B,2,Treatment B,2,2025-01-17,2025-03-16,2025-01-17,2025-03-16,N,N,Y,Y,2025-01-17,Y
CLIN-2025-042,CLIN-2025-042-SITE03-0198,198,SITE03,38,YEARS,<65,1,F,WHITE,NOT HISPANIC OR LATINO,USA,Treatment B,TRT02,Treatment B,TRT02,Treatment B,2,Treatment B,2,2025-05-16,2025-07-23,2025-05-16,2025-07-23,N,N,Y,Y,2025-05-16,Y
CLIN-2025-042,CLIN-2025-042-SITE04-0199,199,SITE04,52,YEARS,<65,1,M,WHITE,NOT HISPANIC OR LATINO,CAN,Treatment B,TRT02,Treatment B,TRT02,Treatment B,2,Treatment B,2,2025-02-15,2025-04-24,2025-02-15,2025-04-24,Y,Y,N,Y,2025-02-15,Y
CLIN-2025-042,CLIN-2025-042-SITE05-0200,200,SITE05,18,YEARS,<65,1,M,WHITE,NOT HISPANIC OR LATINO,GBR,Treatment B,TRT02,Treatment B,TRT02,Treatment B,2,Treatment B,2,2025-04-17,2025-06-20,2025-04-17,2025-06-20,Y,Y,Y,Y,2025-04-17,Y
CLIN-2025-042,CLIN-2025-042-SITE01-0201,201,SITE01,58,YEARS,<65,1,F,WHITE,NOT HISPANIC OR LATINO,USA,Treatment B,TRT02,Treatment B,TRT02,Treatment B,2,Treatment B,2,2025-02-07,2025-04-17,2025-02-07,2025-04-17,Y,Y,N,Y,2025-02-07,Y
CLIN-2025-042,CLIN-2025-042-SITE02-0202,202,SITE02,56,YEARS,<65,1,M,WHITE,HISPANIC OR LATINO,USA,Treatment B,TRT02,Treatment B,TRT02,Treatment B,2,Treatment B,2,2025-04-29,2025-06-21,2025-04-29,2025-06-21,Y,Y,Y,Y,2025-04-29,Y
CLIN-2025-042,CLIN-2025-042-SITE03-0203,203,SITE03,25,YEARS,<65,1,F,WHITE,HISPANIC OR LATINO,USA,Treatment B,TRT02,Treatment B,TRT02,Treatment B,2,Treatment B,2,2025-06-27,2025-08-21,2025-06-27,2025-08-21,Y,Y,Y,Y,2025-06-27,Y
CLIN-2025-042,CLIN-2025-042-SITE04-0204,204,SITE04,21,YEARS,<65,1,M,WHITE,NOT HISPANIC OR LATINO,CAN,Treatment A,TRT01,Treatment A,TRT01,Treatment A,1,Treatment A,1,2025-02-09,2025-04-07,2025-02-09,2025-04-07,Y,Y,Y,Y,2025-02-09,Y
CLIN-2025-042,CLIN-2025-042-SITE05-0205,205,SITE05,20,YEARS,<65,1,F,ASIAN,NOT HISPANIC OR LATINO,GBR,Treatment A,TRT01,Treatment A,TRT01,Treatment A,1,Treatment A,1,2025-01-16,2025-03-11,2025-01-16,2025-03-11,Y,Y,Y,Y,2025-01-16,Y
CLIN-2025-042,CLIN-2025-042-SITE01-0206,206,SITE01,44,YEARS,<65,1,M,BLACK,HISPANIC OR LATINO,USA,Treatment B,TRT02,Treatment B,TRT02,Treatment B,2,Treatment B,2,2025-04-08,2025-05-29,2025-04-08,2025-05-29,N,Y,Y,Y,2025-04-08,Y
CLIN-2025-042,CLIN-2025-042-SITE02-0207,207,SITE02,70,YEARS,>=65,2,M,WHITE,HISPANIC OR LATINO,USA,Treatment A,TRT01,Treatment A,TRT01,Treatment A,1,Treatment A,1,2025-06-26,2025-08-19,2025-06-26,2025-08-19,Y,Y,Y,Y,2025-06-26,Y
CLIN-2025-042,CLIN-2025-042-SITE03-0208,208,SITE03,68,YEARS,>=65,2,M,WHITE,NOT HISPANIC OR LATINO,USA,Treatment A,TRT01,Treatment A,TRT01,Treatment A,1,Treatment A,1,2025-01-24,2025-03-17,2025-01-24,2025-03-17,Y,Y,Y,Y,2025-01-24,Y
CLIN-2025-042,CLIN-2025-042-SITE04-0209,209,SITE04,53,YEARS,<65,1,M,WHITE,HISPANIC OR LATINO,CAN,Treatment B,TRT02,Treatment B,TRT02,Treatment B,2,Treatment B,2,2025-04-29,2025-06-18,2025-04-29,2025-06-18,Y,Y,Y,Y,2025-04-29,Y
CLIN-2025-042,CLIN-2025-042-SITE05-0210,210,SITE05,46,YEARS,<65,1,M,WHITE,HISPANIC OR LATINO,GBR,Treatment A,TRT01,Treatment A,TRT01,Treatment A,1,Treatment A,1,2025-05-01,2025-06-24,2025-05-01,2025-06-24,N,N,Y,Y,2025-05-01,Y
CLIN-2025-042,CLIN-2025-042-SITE01-0211,211,SITE01,41,YEARS,<65,1,F,WHITE,NOT HISPANIC OR LATINO,USA,Treatment B,TRT02,Treatment B,TRT02,Treatment B,2,Treatment B,2,2025-03-11,2025-05-14,2025-03-11,2025-05-14,Y,Y,Y,Y,2025-03-11,N
CLIN-2025-042,CLIN-2025-042-SITE02-0212,212,SITE02,42,YEARS,<65,1,M,WHITE,NOT HISPANIC OR LATINO,USA,Treatment B,TRT02,Treatment B,TRT02,Treatment B,2,Treatment B,2,2025-02-03,2025-03-25,2025-02-03,2025-03-25,Y,Y,Y,Y,2025-02-03,Y
CLIN-2025-042,CLIN-2025-042-SITE03-0213,213,SITE03,37,YEARS,<65,1,F,BLACK,NOT HISPANIC OR LATINO,USA,Treatment A,TRT01,Treatment A,TRT01,Treatment A,1,Treatment A,1,2025-07-12,2025-09-13,2025-07-12,2025-09-13,Y,Y,Y,Y,2025-07-12,Y
CLIN-2025-042,CLIN-2025-042-SITE04-0214,214,SITE04,18,YEARS,<65,1,M,WHITE,NOT HISPANIC OR LATINO,CAN,Treatment A,TRT01,Treatment A,TRT01,Treatment A,1,Treatment A,1,2025-02-12,2025-04-09,2025-02-12,2025-04-09,Y,Y,Y,Y,2025-02-12,Y
CLIN-2025-042,CLIN-2025-042-SITE05-0215,215,SITE05,44,YEARS,<65,1,M,WHITE,NOT HISPANIC OR LATINO,GBR,Treatment B,TRT02,Treatment B,TRT02,Treatment B,2,Treatment B,2,2025-04-08,2025-06-09,2025-04-08,2025-06-09,Y,Y,Y,Y,2025-04-08,Y
CLIN-2025-042,CLIN-2025-042-SITE01-0216,216,SITE01,46,YEARS,<65,1,F,WHITE,NOT HISPANIC OR LATINO,USA,Treatment B,TRT02,Treatment B,TRT02,Treatment B,2,Treatment B,2,2025-06-20,2025-08-14,2025-06-20,2025-08-14,Y,Y,N,Y,2025-06-20,Y
CLIN-2025-042,CLIN-2025-042-SITE02-0217,217,SITE02,55,YEARS,<65,1,M,ASIAN,NOT HISPANIC OR LATINO,USA,Placebo,PBO,Placebo,PBO,Placebo,3,Placebo,3,2025-07-04,2025-09-01,2025-07-04,2025-09-01,Y,Y,Y,Y,2025-07-04,Y
CLIN-2025-042,CLIN-2025-042-SITE03-0218,218,SITE03,37,YEARS,<65,1,F,WHITE,NOT HISPANIC OR LATINO,USA,Treatment A,TRT01,Treatment A,TRT01,Treatment A,1,Treatment A,1,2025-04-13,2025-06-15,2025-04-13,2025-06-15,N,Y,Y,Y,2025-04-13,N
CLIN-2025-042,CLIN-2025-042-SITE04-0219,219,SITE04,30,YEARS,<65,1,F,WHITE,NOT HISPANIC OR LATINO,CAN,Placebo,PBO,Placebo,PBO,Placebo,3,Placebo,3,2025-03-03,2025-04-26,2025-03-03,2025-04-26,Y,Y,N,Y,2025-03-03,Y
CLIN-2025-042,CLIN-2025-042-SITE05-0220,220,SITE05,38,YEARS,<65,1,F,WHITE,NOT HISPANIC OR LATINO,GBR,Placebo,PBO,Placebo,PBO,Placebo,3,Placebo,3,2025-04-13,2025-06-17,2025-04-13,2025-06-17,Y,Y,Y,Y,2025-04-13,Y
CLIN-2025-042,CLIN-2025-042-SITE01-0221,221,SITE01,60,YEARS,<65,1,M,BLACK,NOT HISPANIC OR LATINO,USA,Treatment A,TRT01,Treatment A,TRT01,Treatment A,1,Treatment A,1,2025-04-22,2025-06-16,2025-04-22,2025-06-16,N,N,Y,Y,2025-04-22,Y
CLIN-2025-042,CLIN-2025-042-SITE02-0222,222,SITE02,53,YEARS,<65,1,M,WHITE,NOT HISPANIC OR LATINO,USA,Treatment B,TRT02,Treatment B,TRT02,Treatment B,2,Treatment B,2,2025-03-30,2025-05-19,2025-03-30,2025-05-19,Y,Y,Y,Y,2025-03-30,Y
CLIN-2025-042,CLIN-2025-042-SITE03-0223,223,SITE03,58,YEARS,<65,1,F,WHITE,HISPANIC OR LATINO,USA,Treatment A,TRT01,Treatment A,TRT01,Treatment A,1,Treatment A,1,2025-03-31,2025-05-26,2025-03-31,2025-05-26,Y,Y,Y,Y,2025-03-31,Y
CLIN-2025-042,CLIN-2025-042-SITE04-0224,224,SITE04,18,YEARS,<65,1,F,BLACK,NOT HISPANIC OR LATINO,CAN,Treatment B,TRT02,Treatment B,TRT02,Treatment B,2,Treatment B,2,2025-04-26,2025-06-25,2025-04-26,2025-06-25,Y,Y,Y,Y,2025-04-26,Y
CLIN-2025-042,CLIN-2025-042-SITE05-0225,225,SITE05,38,YEARS,<65,1,M,WHITE,NOT HISPANIC OR LATINO,GBR,Treatment B,TRT02,Treatment B,TRT02,Treatment B,2,Treatment B,2,2025-01-17,2025-03-15,2025-01-17,2025-03-15,Y,Y,Y,Y,2025-01-17,Y
CLIN-2025-042,CLIN-2025-042-SITE01-0226,226,SITE01,44,YEARS,<65,1,F,WHITE,NOT HISPANIC OR LATINO,USA,Treatment A,TRT01,Treatment A,TRT01,Treatment A,1,Treatment A,1,2025-02-20,2025-04-25,2025-02-20,2025-04-25,Y,Y,Y,Y,2025-02-20,N
CLIN-2025-042,CLIN-2025-042-SITE02-0227,227,SITE02,56,YEARS,<65,1,M,WHITE,NOT HISPANIC OR LATINO,USA,Placebo,PBO,Placebo,PBO,Placebo,3,Placebo,3,2025-05-02,2025-07-01,2025-05-02,2025-07-01,Y,Y,Y,Y,2025-05-02,Y
CLIN-2025-042,CLIN-2025-042-SITE03-0228,228,SITE03,49,YEARS,<65,1,M,WHITE,NOT HISPANIC OR LATINO,USA,Treatment A,TRT01,Treatment A,TRT01,Treatment A,1,Treatment A,1,2025-02-04,2025-04-07,2025-02-04,2025-04-07,Y,Y,N,Y,2025-02-04,Y
CLIN-2025-042,CLIN-2025-042-SITE04-0229,229,SITE04,47,YEARS,<65,1,M,WHITE,NOT HISPANIC OR LATINO,CAN,Treatment A,TRT01,Treatment A,TRT01,Treatment A,1,Treatment A,1,2025-03-07,2025-05-09,2025-03-07,2025-05-09,N,N,Y,Y,2025-03-07,Y
CLIN-2025-042,CLIN-2025-042-SITE05-0230,230,SITE05,65,YEARS,>=65,2,M,WHITE,NOT HISPANIC OR LATINO,GBR,Treatment B,TRT02,Treatment B,TRT02,Treatment B,2,Treatment B,2,2025-07-10,2025-09-10,2025-07-10,2025-09-10,Y,Y,Y,Y,2025-07-10,Y
CLIN-2025-042,CLIN-2025-042-SITE01-0231,231,SITE01,35,YEARS,<65,1,F,WHITE,NOT HISPANIC OR LATINO,USA,Treatment B,TRT02,Treatment B,TRT02,Treatment B,2,Treatment B,2,2025-03-29,2025-05-24,2025-03-29,2025-05-24,N,Y,Y,Y,2025-03-29,Y
CLIN-2025-042,CLIN-2025-042-SITE02-0232,232,SITE02,49,YEARS,<65,1,F,WHITE,NOT HISPANIC OR LATINO,USA,Placebo,PBO,Placebo,PBO,Placebo,3,Placebo,3,2025-05-12,2025-07-07,2025-05-12,2025-07-07,Y,Y,Y,Y,2025-05-12,Y
CLIN-2025-042,CLIN-2025-042-SITE03-0233,233,SITE03,29,YEARS,<65,1,F,WHITE,NOT HISPANIC OR LATINO,USA,Treatment A,TRT01,Treatment A,TRT01,Treatment A,1,Treatment A,1,2025-06-04,2025-08-01,2025-06-04,2025-08-01,Y,Y,Y,Y,2025-06-04,Y
CLIN-2025-042,CLIN-2025-042-SITE04-0234,234,SITE04,52,YEARS,<65,1,M,BLACK,NOT HISPANIC OR LATINO,CAN,Treatment B,TRT02,Treatment B,TRT02,Treatment B,2,Treatment B,2,2025-03-04,2025-04-27,2025-03-04,2025-04-27,Y,Y,Y,Y,2025-03-04,Y
CLIN-2025-042,CLIN-2025-042-SITE05-0235,235,SITE05,41,YEARS,<65,1,F,WHITE,HISPANIC OR LATINO,GBR,Treatment B,TRT02,Treatment B,TRT02,Treatment B,2,Treatment B,2,2025-04-13,2025-06-19,2025-04-13,2025-06-19,Y,Y,Y,Y,2025-04-13,Y
CLIN-2025-042,CLIN-2025-042-SITE01-0236,236,SITE01,28,YEARS,<65,1,M,WHITE,NOT HISPANIC OR LATINO,USA,Placebo,PBO,Placebo,PBO,Placebo,3,Placebo,3,2025-06-24,2025-08-29,2025-06-24,2025-08-29,Y,Y,Y,Y,2025-06-24,Y
CLIN-2025-042,CLIN-2025-042-SITE02-0237,237,SITE02,36,YEARS,<65,1,M,WHITE,NOT HISPANIC OR LATINO,USA,Treatment A,TRT01,Treatment A,TRT01,Treatment A,1,Treatment A,1,2025-01-25,2025-03-25,2025-01-25,2025-03-25,Y,Y,Y,Y,2025-01-25,Y
CLIN-2025-042,CLIN-2025-042-SITE03-0238,238,SITE03,47,YEARS,<65,1,M,WHITE,HISPANIC OR LATINO,USA,Treatment B,TRT02,Treatment B,TRT02,Treatment B,2,Treatment B,2,2025-06-09,2025-07-31,2025-06-09,2025-07-31,Y,Y,Y,Y,2025-06-09,Y
CLIN-2025-042,CLIN-2025-042-SITE04-0239,239,SITE04,53,YEARS,<65,1,M,WHITE,NOT HISPANIC OR LATINO,CAN,Treatment A,TRT01,Treatment A,TRT01,Treatment A,1,Treatment A,1,2025-02-07,2025-04-11,2025-02-07,2025-04-11,N,N,Y,Y,2025-02-07,Y
CLIN-2025-042,CLIN-2025-042-SITE05-0240,240,SITE05,69,YEARS,>=65,2,M,WHITE,HISPANIC OR LATINO,GBR,Treatment A,TRT01,Treatment A,TRT01,Treatment A,1,Treatment A,1,2025-04-21,2025-06-13,2025-04-21,2025-06-13,Y,Y,Y,Y,2025-04-21,Y
CLIN-2025-042,CLIN-2025-042-SITE01-0241,241,SITE01,37,YEARS,<65,1,F,WHITE,NOT HISPANIC OR LATINO,USA,Treatment A,TRT01,Treatment A,TRT01,Treatment A,1,Treatment A,1,2025-01-27,2025-04-03,2025-01-27,2025-04-03,Y,Y,Y,Y,2025-01-27,Y
CLIN-2025-042,CLIN-2025-042-SITE02-0242,242,SITE02,48,YEARS,<65,1,M,WHITE,NOT HISPANIC OR LATINO,USA,Treatment B,TRT02,Treatment B,TRT02,Treatment B,2,Treatment B,2,2025-03-22,2025-05-22,2025-03-22,2025-05-22,Y,Y,Y,Y,2025-03-22,Y
CLIN-2025-042,CLIN-2025-042-SITE03-0243,243,SITE03,41,YEARS,<65,1,F,WHITE,NOT HISPANIC OR LATINO,USA,Placebo,PBO,Placebo,PBO,Placebo,3,Placebo,3,2025-01-16,2025-03-12,2025-01-16,2025-03-12,Y,Y,Y,Y,2025-01-16,N
CLIN-2025-042,CLIN-2025-042-SITE04-0244,244,SITE04,70,YEARS,>=65,2,M,WHITE,NOT HISPANIC OR LATINO,CAN,Placebo,PBO,Placebo,PBO,Placebo,3,Placebo,3,2025-04-01,2025-06-04,2025-04-01,2025-06-04,Y,Y,Y,Y,2025-04-01,Y
CLIN-2025-042,CLIN-2025-042-SITE05-0245,245,SITE05,61,YEARS,<65,1,M,ASIAN,HISPANIC OR LATINO,GBR,Treatment B,TRT02,Treatment B,TRT02,Treatment B,2,Treatment B,2,2025-06-07,2025-08-07,2025-06-07,2025-08-07,Y,Y,Y,Y,2025-06-07,Y
CLIN-2025-042,CLIN-2025-042-SITE01-0246,246,SITE01,54,YEARS,<65,1,F,BLACK,NOT HISPANIC OR LATINO,USA,Treatment A,TRT01,Treatment A,TRT01,Treatment A,1,Treatment A,1,2025-04-28,2025-06-21,2025-04-28,2025-06-21,Y,Y,Y,Y,2025-04-28,Y
CLIN-2025-042,CLIN-2025-042-SITE02-0247,247,SITE02,51,YEARS,<65,1,M,WHITE,NOT HISPANIC OR LATINO,USA,Treatment B,TRT02,Treatment B,TRT02,Treatment B,2,Treatment B,2,2025-04-08,2025-06-02,2025-04-08,2025-06-02,Y,Y,Y,Y,2025-04-08,Y
CLIN-2025-042,CLIN-2025-042-SITE03-0248,248,SITE03,50,YEARS,<65,1,M,WHITE,NOT HISPANIC OR LATINO,USA,Treatment A,TRT01,Treatment A,TRT01,Treatment A,1,Treatment A,1,2025-06-05,2025-07-28,2025-06-05,2025-07-28,Y,Y,Y,Y,2025-06-05,Y
CLIN-2025-042,CLIN-2025-042-SITE04-0249,249,SITE04,75,YEARS,>=65,2,M,WHITE,NOT HISPANIC OR LATINO,CAN,Treatment A,TRT01,Treatment A,TRT01,Treatment A,1,Treatment A,1,2025-03-30,2025-05-21,2025-03-30,2025-05-21,Y,Y,Y,Y,2025-03-30,Y
CLIN-2025-042,CLIN-2025-042-SITE05-0250,250,SITE05,28,YEARS,<65,1,M,WHITE,NOT HISPANIC OR LATINO,GBR,Treatment B,TRT02,Treatment B,TRT02,Treatment B,2,Treatment B,2,2025-04-10,2025-06-03,2025-04-10,2025-06-03,Y,Y,Y,Y,2025-04-10,Y
CLIN-2025-042,CLIN-2025-042-SITE01-0251,251,SITE01,71,YEARS,>=65,2,F,WHITE,NOT HISPANIC OR LATINO,USA,Treatment B,TRT02,Treatment B,TRT02,Treatment B,2,Treatment B,2,2025-07-06,2025-08-27,2025-07-06,2025-08-27,Y,Y,Y,Y,2025-07-06,Y
CLIN-2025-042,CLIN-2025-042-SITE02-0252,252,SITE02,48,YEARS,<65,1,M,BLACK,NOT HISPANIC OR LATINO,USA,Placebo,PBO,Placebo,PBO,Placebo,3,Placebo,3,2025-06-06,2025-07-28,2025-06-06,2025-07-28,Y,Y,Y,Y,2025-06-06,Y
CLIN-2025-042,CLIN-2025-042-SITE03-0253,253,SITE03,75,YEARS,>=65,2,M,BLACK,NOT HISPANIC OR LATINO,USA,Placebo,PBO,Placebo,PBO,Placebo,3,Placebo,3,2025-01-24,2025-03-16,2025-01-24,2025-03-16,Y,Y,Y,Y,2025-01-24,Y
CLIN-2025-042,CLIN-2025-042-SITE04-0254,254,SITE04,40,YEARS,<65,1,M,WHITE,NOT HISPANIC OR LATINO,CAN,Treatment B,TRT02,Treatment B,TRT02,Treatment B,2,Treatment B,2,2025-07-02,2025-08-26,2025-07-02,2025-08-26,Y,Y,Y,Y,2025-07-02,Y
CLIN-2025-042,CLIN-2025-042-SITE05-0255,255,SITE05,52,YEARS,<65,1,F,WHITE,HISPANIC OR LATINO,GBR,Treatment A,TRT01,Treatment A,TRT01,Treatment A,1,Treatment A,1,2025-02-08,2025-04-13,2025-02-08,2025-04-13,Y,Y,N,Y,2025-02-08,Y
CLIN-2025-042,CLIN-2025-042-SITE01-0256,256,SITE01,45,YEARS,<65,1,M,WHITE,NOT HISPANIC OR LATINO,USA,Treatment B,TRT02,Treatment B,TRT02,Treatment B,2,Treatment B,2,2025-06-09,2025-08-03,2025-06-09,2025-08-03,Y,Y,Y,Y,2025-06-09,Y
CLIN-2025-042,CLIN-2025-042-SITE02-0257,257,SITE02,36,YEARS,<65,1,F,WHITE,NOT HISPANIC OR LATINO,USA,Treatment A,TRT01,Treatment A,TRT01,Treatment A,1,Treatment A,1,2025-02-14,2025-04-23,2025-02-14,2025-04-23,Y,Y,N,Y,2025-02-14,Y
CLIN-2025-042,CLIN-2025-042-SITE03-0258,258,SITE03,35,YEARS,<65,1,M,WHITE,NOT HISPANIC OR LATINO,USA,Treatment B,TRT02,Treatment B,TRT02,Treatment B,2,Treatment B,2,2025-04-07,2025-06-04,2025-04-07,2025-06-04,Y,Y,Y,Y,2025-04-07,Y
CLIN-2025-042,CLIN-2025-042-SITE04-0259,259,SITE04,47,YEARS,<65,1,M,ASIAN,NOT HISPANIC OR LATINO,CAN,Treatment A,TRT01,Treatment A,TRT01,Treatment A,1,Treatment A,1,2025-04-04,2025-06-08,2025-04-04,2025-06-08,Y,Y,Y,Y,2025-04-04,Y
CLIN-2025-042,CLIN-2025-042-SITE05-0260,260,SITE05,45,YEARS,<65,1,F,WHITE,HISPANIC OR LATINO,GBR,Treatment A,TRT01,Treatment A,TRT01,Treatment A,1,Treatment A,1,2025-03-07,2025-04-29,2025-03-07,2025-04-29,Y,Y,Y,Y,2025-03-07,N
CLIN-2025-042,CLIN-2025-042-SITE01-0261,261,SITE01,63,YEARS,<65,1,M,BLACK,NOT HISPANIC OR LATINO,USA,Placebo,PBO,Placebo,PBO,Placebo,3,Placebo,3,2025-03-17,2025-05-08,2025-03-17,2025-05-08,Y,Y,Y,Y,2025-03-17,Y
CLIN-2025-042,CLIN-2025-042-SITE02-0262,262,SITE02,40,YEARS,<65,1,M,BLACK,NOT HISPANIC OR LATINO,USA,Treatment A,TRT01,Treatment A,TRT01,Treatment A,1,Treatment A,1,2025-05-24,2025-07-18,2025-05-24,2025-07-18,Y,Y,Y,Y,2025-05-24,N
CLIN-2025-042,CLIN-2025-042-SITE03-0263,263,SITE03,30,YEARS,<65,1,M,WHITE,HISPANIC OR LATINO,USA,Treatment B,TRT02,Treatment B,TRT02,Treatment B,2,Treatment B,2,2025-03-20,2025-05-21,2025-03-20,2025-05-21,Y,Y,Y,Y,2025-03-20,Y
CLIN-2025-042,CLIN-2025-042-SITE04-0264,264,SITE04,44,YEARS,<65,1,F,WHITE,NOT HISPANIC OR LATINO,CAN,Placebo,PBO,Placebo,PBO,Placebo,3,Placebo,3,2025-05-11,2025-07-03,2025-05-11,2025-07-03,Y,Y,Y,Y,2025-05-11,N
CLIN-2025-042,CLIN-2025-042-SITE05-0265,265,SITE05,49,YEARS,<65,1,M,ASIAN,NOT HISPANIC OR LATINO,GBR,Placebo,PBO,Placebo,PBO,Placebo,3,Placebo,3,2025-07-13,2025-09-06,2025-07-13,2025-09-06,Y,Y,Y,Y,2025-07-13,Y
CLIN-2025-042,CLIN-2025-042-SITE01-0266,266,SITE01,34,YEARS,<65,1,F,WHITE,NOT HISPANIC OR LATINO,USA,Treatment A,TRT01,Treatment A,TRT01,Treatment A,1,Treatment A,1,2025-04-21,2025-06-19,2025-04-21,2025-06-19,Y,Y,Y,Y,2025-04-21,Y
CLIN-2025-042,CLIN-2025-042-SITE02-0267,267,SITE02,64,YEARS,<65,1,F,WHITE,NOT HISPANIC OR LATINO,USA,Placebo,PBO,Placebo,PBO,Placebo,3,Placebo,3,2025-02-17,2025-04-15,2025-02-17,2025-04-15,Y,Y,Y,Y,2025-02-17,Y
CLIN-2025-042,CLIN-2025-042-SITE03-0268,268,SITE03,68,YEARS,>=65,2,M,BLACK,NOT HISPANIC OR LATINO,USA,Treatment A,TRT01,Treatment A,TRT01,Treatment A,1,Treatment A,1,2025-06-23,2025-08-23,2025-06-23,2025-08-23,Y,Y,Y,Y,2025-06-23,Y
CLIN-2025-042,CLIN-2025-042-SITE04-0269,269,SITE04,24,YEARS,<65,1,M,WHITE,NOT HISPANIC OR LATINO,CAN,Treatment A,TRT01,Treatment A,TRT01,Treatment A,1,Treatment A,1,2025-02-26,2025-04-17,2025-02-26,2025-04-17,Y,Y,Y,Y,2025-02-26,Y
CLIN-2025-042,CLIN-2025-042-SITE05-0270,270,SITE05,30,YEARS,<65,1,M,WHITE,NOT HISPANIC OR LATINO,GBR,Treatment B,TRT02,Treatment B,TRT02,Treatment B,2,Treatment B,2,2025-02-11,2025-04-20,2025-02-11,2025-04-20,Y,Y,Y,Y,2025-02-11,Y
CLIN-2025-042,CLIN-2025-042-SITE01-0271,271,SITE01,59,YEARS,<65,1,M,WHITE,NOT HISPANIC OR LATINO,USA,Treatment B,TRT02,Treatment B,TRT02,Treatment B,2,Treatment B,2,2025-03-19,2025-05-17,2025-03-19,2025-05-17,Y,Y,Y,Y,2025-03-19,Y
CLIN-2025-042,CLIN-2025-042-SITE02-0272,272,SITE02,33,YEARS,<65,1,F,BLACK,NOT HISPANIC OR LATINO,USA,Treatment A,TRT01,Treatment A,TRT01,Treatment A,1,Treatment A,1,2025-03-04,2025-04-26,2025-03-04,2025-04-26,Y,Y,Y,Y,2025-03-04,Y
CLIN-2025-042,CLIN-2025-042-SITE03-0273,273,SITE03,66,YEARS,>=65,2,F,BLACK,NOT HISPANIC OR LATINO,USA,Treatment B,TRT02,Treatment B,TRT02,Treatment B,2,Treatment B,2,2025-05-08,2025-07-06,2025-05-08,2025-07-06,Y,Y,Y,Y,2025-05-08,N
CLIN-2025-042,CLIN-2025-042-SITE04-0274,274,SITE04,71,YEARS,>=65,2,M,ASIAN,NOT HISPANIC OR LATINO,CAN,Treatment B,TRT02,Treatment B,TRT02,Treatment B,2,Treatment B,2,2025-01-25,2025-03-25,2025-01-25,2025-03-25,Y,Y,N,Y,2025-01-25,N
CLIN-2025-042,CLIN-2025-042-SITE05-0275,275,SITE05,53,YEARS,<65,1,M,WHITE,NOT HISPANIC OR LATINO,GBR,Treatment A,TRT01,Treatment A,TRT01,Treatment A,1,Treatment A,1,2025-03-14,2025-05-16,2025-03-14,2025-05-16,Y,Y,Y,Y,2025-03-14,N
CLIN-2025-042,CLIN-2025-042-SITE01-0276,276,SITE01,47,YEARS,<65,1,F,WHITE,NOT HISPANIC OR LATINO,USA,Treatment A,TRT01,Treatment A,TRT01,Treatment A,1,Treatment A,1,2025-07-07,2025-09-11,2025-07-07,2025-09-11,Y,Y,Y,Y,2025-07-07,Y
CLIN-2025-042,CLIN-2025-042-SITE02-0277,277,SITE02,26,YEARS,<65,1,F,OTHER,NOT HISPANIC OR LATINO,USA,Placebo,PBO,Placebo,PBO,Placebo,3,Placebo,3,2025-01-26,2025-03-25,2025-01-26,2025-03-25,Y,Y,Y,Y,2025-01-26,Y
CLIN-2025-042,CLIN-2025-042-SITE03-0278,278,SITE03,54,YEARS,<65,1,M,WHITE,NOT HISPANIC OR LATINO,USA,Treatment B,TRT02,Treatment B,TRT02,Treatment B,2,Treatment B,2,2025-06-14,2025-08-14,2025-06-14,2025-08-14,N,N,Y,Y,2025-06-14,Y
CLIN-2025-042,CLIN-2025-042-SITE04-0279,279,SITE04,50,YEARS,<65,1,M,ASIAN,NOT HISPANIC OR LATINO,CAN,Treatment A,TRT01,Treatment A,TRT01,Treatment A,1,Treatment A,1,2025-04-16,2025-06-17,2025-04-16,2025-06-17,Y,Y,Y,Y,2025-04-16,Y
CLIN-2025-042,CLIN-2025-042-SITE05-0280,280,SITE05,35,YEARS,<65,1,F,WHITE,NOT HISPANIC OR LATINO,GBR,Treatment B,TRT02,Treatment B,TRT02,Treatment B,2,Treatment B,2,2025-04-12,2025-06-12,2025-04-12,2025-06-12,Y,Y,Y,Y,2025-04-12,Y
CLIN-2025-042,CLIN-2025-042-SITE01-0281,281,SITE01,47,YEARS,<65,1,M,ASIAN,NOT HISPANIC OR LATINO,USA,Treatment B,TRT02,Treatment B,TRT02,Treatment B,2,Treatment B,2,2025-05-12,2025-07-19,2025-05-12,2025-07-19,Y,Y,Y,Y,2025-05-12,Y
CLIN-2025-042,CLIN-2025-042-SITE02-0282,282,SITE02,32,YEARS,<65,1,M,BLACK,NOT HISPANIC OR LATINO,USA,Treatment A,TRT01,Treatment A,TRT01,Treatment A,1,Treatment A,1,2025-06-07,2025-08-03,2025-06-07,2025-08-03,Y,Y,N,Y,2025-06-07,Y
CLIN-2025-042,CLIN-2025-042-SITE03-0283,283,SITE03,61,YEARS,<65,1,F,ASIAN,NOT HISPANIC OR LATINO,USA,Treatment A,TRT01,Treatment A,TRT01,Treatment A,1,Treatment A,1,2025-03-19,2025-05-17,2025-03-19,2025-05-17,Y,Y,Y,Y,2025-03-19,Y
CLIN-2025-042,CLIN-2025-042-SITE04-0284,284,SITE04,32,YEARS,<65,1,F,WHITE,HISPANIC OR LATINO,CAN,Treatment B,TRT02,Treatment B,TRT02,Treatment B,2,Treatment B,2,2025-05-06,2025-07-07,2025-05-06,2025-07-07,Y,Y,Y,Y,2025-05-06,N
CLIN-2025-042,CLIN-2025-042-SITE05-0285,285,SITE05,57,YEARS,<65,1,M,BLACK,NOT HISPANIC OR LATINO,GBR,Placebo,PBO,Placebo,PBO,Placebo,3,Placebo,3,2025-01-26,2025-04-02,2025-01-26,2025-04-02,Y,Y,Y,Y,2025-01-26,Y
CLIN-2025-042,CLIN-2025-042-SITE01-0286,286,SITE01,56,YEARS,<65,1,F,WHITE,HISPANIC OR LATINO,USA,Placebo,PBO,Placebo,PBO,Placebo,3,Placebo,3,2025-03-25,2025-06-01,2025-03-25,2025-06-01,Y,Y,Y,Y,2025-03-25,N
CLIN-2025-042,CLIN-2025-042-SITE02-0287,287,SITE02,39,YEARS,<65,1,M,WHITE,NOT HISPANIC OR LATINO,USA,Treatment B,TRT02,Treatment B,TRT02,Treatment B,2,Treatment B,2,2025-02-07,2025-03-31,2025-02-07,2025-03-31,Y,Y,Y,Y,2025-02-07,Y
CLIN-2025-042,CLIN-2025-042-SITE03-0288,288,SITE03,38,YEARS,<65,1,M,WHITE,NOT HISPANIC OR LATINO,USA,Placebo,PBO,Placebo,PBO,Placebo,3,Placebo,3,2025-01-28,2025-03-21,2025-01-28,2025-03-21,Y,Y,Y,Y,2025-01-28,Y
CLIN-2025-042,CLIN-2025-042-SITE04-0289,289,SITE04,40,YEARS,<65,1,F,WHITE,NOT HISPANIC OR LATINO,CAN,Treatment B,TRT02,Treatment B,TRT02,Treatment B,2,Treatment B,2,2025-02-07,2025-03-30,2025-02-07,2025-03-30,Y,Y,Y,Y,2025-02-07,Y
CLIN-2025-042,CLIN-2025-042-SITE05-0290,290,SITE05,45,YEARS,<65,1,F,OTHER,NOT HISPANIC OR LATINO,GBR,Treatment A,TRT01,Treatment A,TRT01,Treatment A,1,Treatment A,1,2025-06-15,2025-08-16,2025-06-15,2025-08-16,Y,Y,Y,Y,2025-06-15,Y
CLIN-2025-042,CLIN-2025-042-SITE01-0291,291,SITE01,50,YEARS,<65,1,M,WHITE,HISPANIC OR LATINO,USA,Placebo,PBO,Placebo,PBO,Placebo,3,Placebo,3,2025-02-02,2025-04-08,2025-02-02,2025-04-08,Y,Y,Y,Y,2025-02-02,Y
CLIN-2025-042,CLIN-2025-042-SITE02-0292,292,SITE02,36,YEARS,<65,1,F,WHITE,HISPANIC OR LATINO,USA,Treatment A,TRT01,Treatment A,TRT01,Treatment A,1,Treatment A,1,2025-03-02,2025-05-01,2025-03-02,2025-05-01,Y,Y,Y,Y,2025-03-02,Y
CLIN-2025-042,CLIN-2025-042-SITE03-0293,293,SITE03,57,YEARS,<65,1,M,OTHER,NOT HISPANIC OR LATINO,USA,Treatment B,TRT02,Treatment B,TRT02,Treatment B,2,Treatment B,2,2025-06-11,2025-08-15,2025-06-11,2025-08-15,Y,Y,Y,Y,2025-06-11,Y
CLIN-2025-042,CLIN-2025-042-SITE04-0294,294,SITE04,58,YEARS,<65,1,M,BLACK,NOT HISPANIC OR LATINO,CAN,Treatment B,TRT02,Treatment B,TRT02,Treatment B,2,Treatment B,2,2025-06-01,2025-08-07,2025-06-01,2025-08-07,Y,Y,Y,Y,2025-06-01,Y
CLIN-2025-042,CLIN-2025-042-SITE05-0295,295,SITE05,36,YEARS,<65,1,F,WHITE,HISPANIC OR LATINO,GBR,Treatment B,TRT02,Treatment B,TRT02,Treatment B,2,Treatment B,2,2025-04-05,2025-06-06,2025-04-05,2025-06-06,Y,Y,Y,Y,2025-04-05,Y
CLIN-2025-042,CLIN-2025-042-SITE01-0296,296,SITE01,25,YEARS,<65,1,M,WHITE,NOT HISPANIC OR LATINO,USA,Treatment B,TRT02,Treatment B,TRT02,Treatment B,2,Treatment B,2,2025-01-19,2025-03-13,2025-01-19,2025-03-13,Y,Y,Y,Y,2025-01-19,N
CLIN-2025-042,CLIN-2025-042-SITE02-0297,297,SITE02,50,YEARS,<65,1,F,WHITE,NOT HISPANIC OR LATINO,USA,Treatment B,TRT02,Treatment B,TRT02,Treatment B,2,Treatment B,2,2025-05-23,2025-07-15,2025-05-23,2025-07-15,Y,Y,Y,Y,2025-05-23,Y
CLIN-2025-042,CLIN-2025-042-SITE03-0298,298,SITE03,28,YEARS,<65,1,M,WHITE,NOT HISPANIC OR LATINO,USA,Treatment B,TRT02,Treatment B,TRT02,Treatment B,2,Treatment B,2,2025-02-19,2025-04-21,2025-02-19,2025-04-21,Y,Y,Y,Y,2025-02-19,Y
CLIN-2025-042,CLIN-2025-042-SITE04-0299,299,SITE04,40,YEARS,<65,1,M,BLACK,NOT HISPANIC OR LATINO,CAN,Treatment A,TRT01,Treatment A,TRT01,Treatment A,1,Treatment A,1,2025-01-28,2025-03-28,2025-01-28,2025-03-28,Y,Y,Y,Y,2025-01-28,Y
CLIN-2025-042,CLIN-2025-042-SITE05-0300,300,SITE05,68,YEARS,>=65,2,F,WHITE,HISPANIC OR LATINO,GBR,Treatment B,TRT02,Treatment B,TRT02,Treatment B,2,Treatment B,2,2025-05-01,2025-07-09,2025-05-01,2025-07-09,Y,Y,Y,Y,2025-05-01,Y
CLIN-2025-042,CLIN-2025-042-SITE01-0301,301,SITE01,46,YEARS,<65,1,F,ASIAN,HISPANIC OR LATINO,USA,Treatment A,TRT01,Treatment A,TRT01,Treatment A,1,Treatment A,1,2025-01-21,2025-03-17,2025-01-21,2025-03-17,Y,Y,N,Y,2025-01-21,Y
CLIN-2025-042,CLIN-2025-042-SITE02-0302,302,SITE02,52,YEARS,<65,1,F,OTHER,NOT HISPANIC OR LATINO,USA,Treatment B,TRT02,Treatment B,TRT02,Treatment B,2,Treatment B,2,2025-05-22,2025-07-24,2025-05-22,2025-07-24,Y,Y,Y,Y,2025-05-22,Y
CLIN-2025-042,CLIN-2025-042-SITE03-0303,303,SITE03,46,YEARS,<65,1,M,WHITE,NOT HISPANIC OR LATINO,USA,Treatment B,TRT02,Treatment B,TRT02,Treatment B,2,Treatment B,2,2025-06-28,2025-09-02,2025-06-28,2025-09-02,Y,Y,Y,Y,2025-06-28,N
CLIN-2025-042,CLIN-2025-042-SITE04-0304,304,SITE04,50,YEARS,<65,1,M,BLACK,NOT HISPANIC OR LATINO,CAN,Treatment A,TRT01,Treatment A,TRT01,Treatment A,1,Treatment A,1,2025-05-21,2025-07-19,2025-05-21,2025-07-19,Y,Y,Y,Y,2025-05-21,Y
CLIN-2025-042,CLIN-2025-042-SITE05-0305,305,SITE05,66,YEARS,>=65,2,M,WHITE,NOT HISPANIC OR LATINO,GBR,Placebo,PBO,Placebo,PBO,Placebo,3,Placebo,3,2025-03-16,2025-05-06,2025-03-16,2025-05-06,Y,Y,Y,Y,2025-03-16,N
CLIN-2025-042,CLIN-2025-042-SITE01-0306,306,SITE01,48,YEARS,<65,1,M,WHITE,NOT HISPANIC OR LATINO,USA,Treatment A,TRT01,Treatment A,TRT01,Treatment A,1,Treatment A,1,2025-04-22,2025-06-11,2025-04-22,2025-06-11,Y,Y,Y,Y,2025-04-22,N
CLIN-2025-042,CLIN-2025-042-SITE02-0307,307,SITE02,69,YEARS,>=65,2,F,WHITE,NOT HISPANIC OR LATINO,USA,Treatment A,TRT01,Treatment A,TRT01,Treatment A,1,Treatment A,1,2025-03-29,2025-05-19,2025-03-29,2025-05-19,Y,Y,Y,Y,2025-03-29,Y
CLIN-2025-042,CLIN-2025-042-SITE03-0308,308,SITE03,41,YEARS,<65,1,F,BLACK,NOT HISPANIC OR LATINO,USA,Treatment A,TRT01,Treatment A,TRT01,Treatment A,1,Treatment A,1,2025-03-14,2025-05-12,2025-03-14,2025-05-12,Y,Y,Y,Y,2025-03-14,Y
CLIN-2025-042,CLIN-2025-042-SITE04-0309,309,SITE04,56,YEARS,<65,1,F,WHITE,NOT HISPANIC OR LATINO,CAN,Treatment A,TRT01,Treatment A,TRT01,Treatment A,1,Treatment A,1,2025-02-04,2025-04-14,2025-02-04,2025-04-14,Y,Y,Y,Y,2025-02-04,N
CLIN-2025-042,CLIN-2025-042-SITE05-0310,310,SITE05,57,YEARS,<65,1,M,WHITE,NOT HISPANIC OR LATINO,GBR,Treatment B,TRT02,Treatment B,TRT02,Treatment B,2,Treatment B,2,2025-05-10,2025-07-12,2025-05-10,2025-07-12,Y,Y,Y,Y,2025-05-10,Y
CLIN-2025-042,CLIN-2025-042-SITE01-0311,311,SITE01,42,YEARS,<65,1,F,WHITE,NOT HISPANIC OR LATINO,USA,Treatment B,TRT02,Treatment B,TRT02,Treatment B,2,Treatment B,2,2025-03-21,2025-05-12,2025-03-21,2025-05-12,N,Y,Y,Y,2025-03-21,Y
CLIN-2025-042,CLIN-2025-042-SITE02-0312,312,SITE02,75,YEARS,>=65,2,F,OTHER,HISPANIC OR LATINO,USA,Placebo,PBO,Placebo,PBO,Placebo,3,Placebo,3,2025-07-11,2025-09-09,2025-07-11,2025-09-09,Y,Y,Y,Y,2025-07-11,N
CLIN-2025-042,CLIN-2025-042-SITE03-0313,313,SITE03,62,YEARS,<65,1,F,WHITE,HISPANIC OR LATINO,USA,Treatment B,TRT02,Treatment B,TRT02,Treatment B,2,Treatment B,2,2025-06-15,2025-08-12,2025-06-15,2025-08-12,Y,Y,Y,Y,2025-06-15,Y
CLIN-2025-042,CLIN-2025-042-SITE04-0314,314,SITE04,53,YEARS,<65,1,F,WHITE,NOT HISPANIC OR LATINO,CAN,Treatment B,TRT02,Treatment B,TRT02,Treatment B,2,Treatment B,2,2025-02-25,2025-05-05,2025-02-25,2025-05-05,Y,Y,Y,Y,2025-02-25,Y
CLIN-2025-042,CLIN-2025-042-SITE05-0315,315,SITE05,75,YEARS,>=65,2,M,WHITE,NOT HISPANIC OR LATINO,GBR,Treatment A,TRT01,Treatment A,TRT01,Treatment A,1,Treatment A,1,2025-02-10,2025-04-18,2025-02-10,2025-04-18,Y,Y,Y,Y,2025-02-10,Y
CLIN-2025-042,CLIN-2025-042-SITE01-0316,316,SITE01,47,YEARS,<65,1,M,BLACK,NOT HISPANIC OR LATINO,USA,Treatment B,TRT02,Treatment B,TRT02,Treatment B,2,Treatment B,2,2025-07-09,2025-09-07,2025-07-09,2025-09-07,Y,Y,N,Y,2025-07-09,Y
CLIN-2025-042,CLIN-2025-042-SITE02-0317,317,SITE02,29,YEARS,<65,1,F,BLACK,NOT HISPANIC OR LATINO,USA,Placebo,PBO,Placebo,PBO,Placebo,3,Placebo,3,2025-05-31,2025-07-31,2025-05-31,2025-07-31,Y,Y,Y,Y,2025-05-31,Y
CLIN-2025-042,CLIN-2025-042-SITE03-0318,318,SITE03,44,YEARS,<65,1,F,WHITE,HISPANIC OR LATINO,USA,Placebo,PBO,Placebo,PBO,Placebo,3,Placebo,3,2025-03-14,2025-05-07,2025-03-14,2025-05-07,Y,Y,Y,Y,2025-03-14,Y
CLIN-2025-042,CLIN-2025-042-SITE04-0319,319,SITE04,26,YEARS,<65,1,F,ASIAN,HISPANIC OR LATINO,CAN,Placebo,PBO,Placebo,PBO,Placebo,3,Placebo,3,2025-05-20,2025-07-13,2025-05-20,2025-07-13,Y,Y,Y,Y,2025-05-20,Y
CLIN-2025-042,CLIN-2025-042-SITE05-0320,320,SITE05,29,YEARS,<65,1,F,BLACK,NOT HISPANIC OR LATINO,GBR,Treatment B,TRT02,Treatment B,TRT02,Treatment B,2,Treatment B,2,2025-05-15,2025-07-14,2025-05-15,2025-07-14,Y,Y,Y,Y,2025-05-15,Y
CLIN-2025-042,CLIN-2025-042-SITE01-0321,321,SITE01,53,YEARS,<65,1,M,ASIAN,NOT HISPANIC OR LATINO,USA,Treatment A,TRT01,Treatment A,TRT01,Treatment A,1,Treatment A,1,2025-05-25,2025-07-25,2025-05-25,2025-07-25,Y,Y,Y,Y,2025-05-25,Y
CLIN-2025-042,CLIN-2025-042-SITE02-0322,322,SITE02,32,YEARS,<65,1,M,WHITE,NOT HISPANIC OR LATINO,USA,Treatment A,TRT01,Treatment A,TRT01,Treatment A,1,Treatment A,1,2025-07-13,2025-09-02,2025-07-13,2025-09-02,Y,Y,Y,Y,2025-07-13,Y
CLIN-2025-042,CLIN-2025-042-SITE03-0323,323,SITE03,51,YEARS,<65,1,F,WHITE,NOT HISPANIC OR LATINO,USA,Treatment B,TRT02,Treatment B,TRT02,Treatment B,2,Treatment B,2,2025-07-09,2025-09-13,2025-07-09,2025-09-13,Y,Y,Y,Y,2025-07-09,Y
CLIN-2025-042,CLIN-2025-042-SITE04-0324,324,SITE04,44,YEARS,<65,1,F,WHITE,NOT HISPANIC OR LATINO,CAN,Treatment B,TRT02,Treatment B,TRT02,Treatment B,2,Treatment B,2,2025-03-21,2025-05-12,2025-03-21,2025-05-12,Y,Y,Y,Y,2025-03-21,Y
CLIN-2025-042,CLIN-2025-042-SITE05-0325,325,SITE05,58,YEARS,<65,1,F,BLACK,NOT HISPANIC OR LATINO,GBR,Placebo,PBO,Placebo,PBO,Placebo,3,Placebo,3,2025-05-18,2025-07-07,2025-05-18,2025-07-07,N,N,Y,Y,2025-05-18,Y
CLIN-2025-042,CLIN-2025-042-SITE01-0326,326,SITE01,24,YEARS,<65,1,F,WHITE,NOT HISPANIC OR LATINO,USA,Treatment A,TRT01,Treatment A,TRT01,Treatment A,1,Treatment A,1,2025-02-04,2025-03-28,2025-02-04,2025-03-28,Y,Y,Y,Y,2025-02-04,Y
CLIN-2025-042,CLIN-2025-042-SITE02-0327,327,SITE02,57,YEARS,<65,1,F,WHITE,NOT HISPANIC OR LATINO,USA,Placebo,PBO,Placebo,PBO,Placebo,3,Placebo,3,2025-06-08,2025-08-03,2025-06-08,2025-08-03,Y,Y,Y,Y,2025-06-08,Y
CLIN-2025-042,CLIN-2025-042-SITE03-0328,328,SITE03,50,YEARS,<65,1,M,WHITE,NOT HISPANIC OR LATINO,USA,Treatment A,TRT01,Treatment A,TRT01,Treatment A,1,Treatment A,1,2025-03-01,2025-04-25,2025-03-01,2025-04-25,Y,Y,N,Y,2025-03-01,N
CLIN-2025-042,CLIN-2025-042-SITE04-0329,329,SITE04,38,YEARS,<65,1,M,OTHER,NOT HISPANIC OR LATINO,CAN,Treatment B,TRT02,Treatment B,TRT02,Treatment B,2,Treatment B,2,2025-04-02,2025-06-10,2025-04-02,2025-06-10,Y,Y,Y,Y,2025-04-02,Y
CLIN-2025-042,CLIN-2025-042-SITE05-0330,330,SITE05,43,YEARS,<65,1,F,BLACK,NOT HISPANIC OR LATINO,GBR,Treatment B,TRT02,Treatment B,TRT02,Treatment B,2,Treatment B,2,2025-05-04,2025-07-11,2025-05-04,2025-07-11,Y,Y,Y,Y,2025-05-04,Y
CLIN-2025-042,CLIN-2025-042-SITE01-0331,331,SITE01,36,YEARS,<65,1,M,ASIAN,NOT HISPANIC OR LATINO,USA,Placebo,PBO,Placebo,PBO,Placebo,3,Placebo,3,2025-03-18,2025-05-15,2025-03-18,2025-05-15,Y,Y,N,Y,2025-03-18,Y
CLIN-2025-042,CLIN-2025-042-SITE02-0332,332,SITE02,57,YEARS,<65,1,M,WHITE,NOT HISPANIC OR LATINO,USA,Treatment B,TRT02,Treatment B,TRT02,Treatment B,2,Treatment B,2,2025-03-16,2025-05-08,2025-03-16,2025-05-08,Y,Y,Y,Y,2025-03-16,Y
CLIN-2025-042,CLIN-2025-042-SITE03-0333,333,SITE03,29,YEARS,<65,1,F,BLACK,HISPANIC OR LATINO,USA,Treatment B,TRT02,Treatment B,TRT02,Treatment B,2,Treatment B,2,2025-04-13,2025-06-15,2025-04-13,2025-06-15,Y,Y,Y,Y,2025-04-13,Y
CLIN-2025-042,CLIN-2025-042-SITE04-0334,334,SITE04,28,YEARS,<65,1,F,WHITE,HISPANIC OR LATINO,CAN,Placebo,PBO,Placebo,PBO,Placebo,3,Placebo,3,2025-01-22,2025-03-14,2025-01-22,2025-03-14,N,N,Y,Y,2025-01-22,Y
CLIN-2025-042,CLIN-2025-042-SITE05-0335,335,SITE05,20,YEARS,<65,1,M,BLACK,HISPANIC OR LATINO,GBR,Treatment A,TRT01,Treatment A,TRT01,Treatment A,1,Treatment A,1,2025-01-30,2025-04-06,2025-01-30,2025-04-06,N,N,Y,Y,2025-01-30,Y
CLIN-2025-042,CLIN-2025-042-SITE01-0336,336,SITE01,37,YEARS,<65,1,M,WHITE,HISPANIC OR LATINO,USA,Treatment B,TRT02,Treatment B,TRT02,Treatment B,2,Treatment B,2,2025-03-03,2025-05-11,2025-03-03,2025-05-11,Y,Y,Y,Y,2025-03-03,Y
CLIN-2025-042,CLIN-2025-042-SITE02-0337,337,SITE02,28,YEARS,<65,1,F,WHITE,NOT HISPANIC OR LATINO,USA,Treatment B,TRT02,Treatment B,TRT02,Treatment B,2,Treatment B,2,2025-05-31,2025-07-23,2025-05-31,2025-07-23,Y,Y,Y,Y,2025-05-31,Y
CLIN-2025-042,CLIN-2025-042-SITE03-0338,338,SITE03,43,YEARS,<65,1,M,BLACK,NOT HISPANIC OR LATINO,USA,Treatment A,TRT01,Treatment A,TRT01,Treatment A,1,Treatment A,1,2025-02-04,2025-04-13,2025-02-04,2025-04-13,Y,Y,Y,Y,2025-02-04,Y
CLIN-2025-042,CLIN-2025-042-SITE04-0339,339,SITE04,75,YEARS,>=65,2,M,OTHER,NOT HISPANIC OR LATINO,CAN,Treatment B,TRT02,Treatment B,TRT02,Treatment B,2,Treatment B,2,2025-04-16,2025-06-08,2025-04-16,2025-06-08,Y,Y,N,Y,2025-04-16,Y
CLIN-2025-042,CLIN-2025-042-SITE05-0340,340,SITE05,42,YEARS,<65,1,F,WHITE,HISPANIC OR LATINO,GBR,Treatment B,TRT02,Treatment B,TRT02,Treatment B,2,Treatment B,2,2025-01-15,2025-03-13,2025-01-15,2025-03-13,N,Y,Y,Y,2025-01-15,Y
CLIN-2025-042,CLIN-2025-042-SITE01-0341,341,SITE01,38,YEARS,<65,1,M,OTHER,NOT HISPANIC OR LATINO,USA,Treatment A,TRT01,Treatment A,TRT01,Treatment A,1,Treatment A,1,2025-01-26,2025-03-22,2025-01-26,2025-03-22,Y,Y,Y,Y,2025-01-26,Y
CLIN-2025-042,CLIN-2025-042-SITE02-0342,342,SITE02,34,YEARS,<65,1,F,WHITE,NOT HISPANIC OR LATINO,USA,Treatment B,TRT02,Treatment B,TRT02,Treatment B,2,Treatment B,2,2025-07-01,2025-09-02,2025-07-01,2025-09-02,Y,Y,Y,Y,2025-07-01,Y
CLIN-2025-042,CLIN-2025-042-SITE03-0343,343,SITE03,49,YEARS,<65,1,M,WHITE,HISPANIC OR LATINO,USA,Treatment B,TRT02,Treatment B,TRT02,Treatment B,2,Treatment B,2,2025-03-04,2025-05-06,2025-03-04,2025-05-06,Y,Y,Y,Y,2025-03-04,Y
CLIN-2025-042,CLIN-2025-042-SITE04-0344,344,SITE04,49,YEARS,<65,1,M,ASIAN,NOT HISPANIC OR LATINO,CAN,Treatment B,TRT02,Treatment B,TRT02,Treatment B,2,Treatment B,2,2025-03-17,2025-05-15,2025-03-17,2025-05-15,N,Y,Y,Y,2025-03-17,Y
CLIN-2025-042,CLIN-2025-042-SITE05-0345,345,SITE05,46,YEARS,<65,1,M,ASIAN,NOT HISPANIC OR LATINO,GBR,Treatment A,TRT01,Treatment A,TRT01,Treatment A,1,Treatment A,1,2025-02-24,2025-05-01,2025-02-24,2025-05-01,Y,Y,N,Y,2025-02-24,Y
CLIN-2025-042,CLIN-2025-042-SITE01-0346,346,SITE01,18,YEARS,<65,1,M,WHITE,NOT HISPANIC OR LATINO,USA,Treatment B,TRT02,Treatment B,TRT02,Treatment B,2,Treatment B,2,2025-06-10,2025-08-09,2025-06-10,2025-08-09,Y,Y,Y,Y,2025-06-10,Y
CLIN-2025-042,CLIN-2025-042-SITE02-0347,347,SITE02,56,YEARS,<65,1,F,WHITE,NOT HISPANIC OR LATINO,USA,Treatment B,TRT02,Treatment B,TRT02,Treatment B,2,Treatment B,2,2025-03-31,2025-05-27,2025-03-31,2025-05-27,Y,Y,Y,Y,2025-03-31,Y
CLIN-2025-042,CLIN-2025-042-SITE03-0348,348,SITE03,67,YEARS,>=65,2,M,WHITE,HISPANIC OR LATINO,USA,Placebo,PBO,Placebo,PBO,Placebo,3,Placebo,3,2025-01-22,2025-03-26,2025-01-22,2025-03-26,N,Y,Y,Y,2025-01-22,Y
CLIN-2025-042,CLIN-2025-042-SITE04-0349,349,SITE04,32,YEARS,<65,1,M,WHITE,NOT HISPANIC OR LATINO,CAN,Treatment B,TRT02,Treatment B,TRT02,Treatment B,2,Treatment B,2,2025-04-06,2025-06-12,2025-04-06,2025-06-12,N,N,Y,Y,2025-04-06,Y
CLIN-2025-042,CLIN-2025-042-SITE05-0350,350,SITE05,18,YEARS,<65,1,M,WHITE,NOT HISPANIC OR LATINO,GBR,Treatment B,TRT02,Treatment B,TRT02,Treatment B,2,Treatment B,2,2025-04-08,2025-06-13,2025-04-08,2025-06-13,Y,Y,Y,Y,2025-04-08,N
CLIN-2025-042,CLIN-2025-042-SITE01-0351,351,SITE01,48,YEARS,<65,1,F,WHITE,NOT HISPANIC OR LATINO,USA,Placebo,PBO,Placebo,PBO,Placebo,3,Placebo,3,2025-02-12,2025-04-11,2025-02-12,2025-04-11,Y,Y,Y,Y,2025-02-12,Y
CLIN-2025-042,CLIN-2025-042-SITE02-0352,352,SITE02,58,YEARS,<65,1,F,WHITE,NOT HISPANIC OR LATINO,USA,Treatment A,TRT01,Treatment A,TRT01,Treatment A,1,Treatment A,1,2025-02-22,2025-04-15,2025-02-22,2025-04-15,Y,Y,Y,Y,2025-02-22,Y
CLIN-2025-042,CLIN-2025-042-SITE03-0353,353,SITE03,49,YEARS,<65,1,F,WHITE,NOT HISPANIC OR LATINO,USA,Treatment A,TRT01,Treatment A,TRT01,Treatment A,1,Treatment A,1,2025-06-07,2025-08-03,2025-06-07,2025-08-03,Y,Y,Y,Y,2025-06-07,Y
CLIN-2025-042,CLIN-2025-042-SITE04-0354,354,SITE04,73,YEARS,>=65,2,M,WHITE,HISPANIC OR LATINO,CAN,Treatment A,TRT01,Treatment A,TRT01,Treatment A,1,Treatment A,1,2025-04-25,2025-06-30,2025-04-25,2025-06-30,Y,Y,Y,Y,2025-04-25,Y
CLIN-2025-042,CLIN-2025-042-SITE05-0355,355,SITE05,27,YEARS,<65,1,M,WHITE,HISPANIC OR LATINO,GBR,Treatment A,TRT01,Treatment A,TRT01,Treatment A,1,Treatment A,1,2025-02-04,2025-04-05,2025-02-04,2025-04-05,Y,Y,N,Y,2025-02-04,Y
CLIN-2025-042,CLIN-2025-042-SITE01-0356,356,SITE01,58,YEARS,<65,1,M,WHITE,NOT HISPANIC OR LATINO,USA,Treatment B,TRT02,Treatment B,TRT02,Treatment B,2,Treatment B,2,2025-04-22,2025-06-13,2025-04-22,2025-06-13,Y,Y,Y,Y,2025-04-22,Y
CLIN-2025-042,CLIN-2025-042-SITE02-0357,357,SITE02,40,YEARS,<65,1,M,WHITE,HISPANIC OR LATINO,USA,Treatment A,TRT01,Treatment A,TRT01,Treatment A,1,Treatment A,1,2025-03-30,2025-06-03,2025-03-30,2025-06-03,Y,Y,Y,Y,2025-03-30,Y
CLIN-2025-042,CLIN-2025-042-SITE03-0358,358,SITE03,43,YEARS,<65,1,F,WHITE,NOT HISPANIC OR LATINO,USA,Treatment B,TRT02,Treatment B,TRT02,Treatment B,2,Treatment B,2,2025-06-19,2025-08-12,2025-06-19,2025-08-12,Y,Y,Y,Y,2025-06-19,N
CLIN-2025-042,CLIN-2025-042-SITE04-0359,359,SITE04,23,YEARS,<65,1,F,WHITE,NOT HISPANIC OR LATINO,CAN,Placebo,PBO,Placebo,PBO,Placebo,3,Placebo,3,2025-02-02,2025-04-02,2025-02-02,2025-04-02,Y,Y,Y,Y,2025-02-02,Y
CLIN-2025-042,CLIN-2025-042-SITE05-0360,360,SITE05,63,YEARS,<65,1,F,ASIAN,NOT HISPANIC OR LATINO,GBR,Treatment A,TRT01,Treatment A,TRT01,Treatment A,1,Treatment A,1,2025-02-21,2025-04-16,2025-02-21,2025-04-16,Y,Y,Y,Y,2025-02-21,N
CLIN-2025-042,CLIN-2025-042-SITE01-0361,361,SITE01,45,YEARS,<65,1,M,WHITE,NOT HISPANIC OR LATINO,USA,Treatment B,TRT02,Treatment B,TRT02,Treatment B,2,Treatment B,2,2025-02-14,2025-04-08,2025-02-14,2025-04-08,Y,Y,Y,Y,2025-02-14,Y
CLIN-2025-042,CLIN-2025-042-SITE02-0362,362,SITE02,51,YEARS,<65,1,M,WHITE,NOT HISPANIC OR LATINO,USA,Treatment A,TRT01,Treatment A,TRT01,Treatment A,1,Treatment A,1,2025-05-01,2025-06-29,2025-05-01,2025-06-29,Y,Y,Y,Y,2025-05-01,Y
CLIN-2025-042,CLIN-2025-042-SITE03-0363,363,SITE03,23,YEARS,<65,1,F,WHITE,NOT HISPANIC OR LATINO,USA,Treatment B,TRT02,Treatment B,TRT02,Treatment B,2,Treatment B,2,2025-07-03,2025-08-26,2025-07-03,2025-08-26,Y,Y,Y,Y,2025-07-03,Y
CLIN-2025-042,CLIN-2025-042-SITE04-0364,364,SITE04,23,YEARS,<65,1,F,WHITE,NOT HISPANIC OR LATINO,CAN,Placebo,PBO,Placebo,PBO,Placebo,3,Placebo,3,2025-05-07,2025-07-08,2025-05-07,2025-07-08,Y,Y,Y,Y,2025-05-07,Y
CLIN-2025-042,CLIN-2025-042-SITE05-0365,365,SITE05,75,YEARS,>=65,2,F,WHITE,NOT HISPANIC OR LATINO,GBR,Placebo,PBO,Placebo,PBO,Placebo,3,Placebo,3,2025-02-05,2025-03-30,2025-02-05,2025-03-30,Y,Y,N,Y,2025-02-05,Y
CLIN-2025-042,CLIN-2025-042-SITE01-0366,366,SITE01,18,YEARS,<65,1,F,BLACK,NOT HISPANIC OR LATINO,USA,Placebo,PBO,Placebo,PBO,Placebo,3,Placebo,3,2025-05-25,2025-07-23,2025-05-25,2025-07-23,Y,Y,N,Y,2025-05-25,Y
CLIN-2025-042,CLIN-2025-042-SITE02-0367,367,SITE02,47,YEARS,<65,1,M,WHITE,NOT HISPANIC OR LATINO,USA,Treatment B,TRT02,Treatment B,TRT02,Treatment B,2,Treatment B,2,2025-05-21,2025-07-21,2025-05-21,2025-07-21,Y,Y,Y,Y,2025-05-21,Y
CLIN-2025-042,CLIN-2025-042-SITE03-0368,368,SITE03,63,YEARS,<65,1,F,WHITE,NOT HISPANIC OR LATINO,USA,Placebo,PBO,Placebo,PBO,Placebo,3,Placebo,3,2025-06-04,2025-08-07,2025-06-04,2025-08-07,Y,Y,Y,Y,2025-06-04,Y
CLIN-2025-042,CLIN-2025-042-SITE04-0369,369,SITE04,42,YEARS,<65,1,M,BLACK,HISPANIC OR LATINO,CAN,Treatment B,TRT02,Treatment B,TRT02,Treatment B,2,Treatment B,2,2025-04-06,2025-06-02,2025-04-06,2025-06-02,Y,Y,Y,Y,2025-04-06,Y
CLIN-2025-042,CLIN-2025-042-SITE05-0370,370,SITE05,66,YEARS,>=65,2,F,WHITE,HISPANIC OR LATINO,GBR,Placebo,PBO,Placebo,PBO,Placebo,3,Placebo,3,2025-04-25,2025-06-17,2025-04-25,2025-06-17,Y,Y,Y,Y,2025-04-25,N
CLIN-2025-042,CLIN-2025-042-SITE01-0371,371,SITE01,34,YEARS,<65,1,M,BLACK,HISPANIC OR LATINO,USA,Treatment B,TRT02,Treatment B,TRT02,Treatment B,2,Treatment B,2,2025-03-09,2025-05-10,2025-03-09,2025-05-10,N,N,Y,Y,2025-03-09,Y
CLIN-2025-042,CLIN-2025-042-SITE02-0372,372,SITE02,46,YEARS,<65,1,F,WHITE,HISPANIC OR LATINO,USA,Treatment A,TRT01,Treatment A,TRT01,Treatment A,1,Treatment A,1,2025-03-25,2025-05-30,2025-03-25,2025-05-30,Y,Y,Y,Y,2025-03-25,Y
CLIN-2025-042,CLIN-2025-042-SITE03-0373,373,SITE03,54,YEARS,<65,1,M,WHITE,HISPANIC OR LATINO,USA,Treatment B,TRT02,Treatment B,TRT02,Treatment B,2,Treatment B,2,2025-03-25,2025-05-17,2025-03-25,2025-05-17,Y,Y,Y,Y,2025-03-25,N
CLIN-2025-042,CLIN-2025-042-SITE04-0374,374,SITE04,34,YEARS,<65,1,M,WHITE,NOT HISPANIC OR LATINO,CAN,Treatment B,TRT02,Treatment B,TRT02,Treatment B,2,Treatment B,2,2025-07-12,2025-09-13,2025-07-12,2025-09-13,Y,Y,Y,Y,2025-07-12,Y
CLIN-2025-042,CLIN-2025-042-SITE05-0375,375,SITE05,29,YEARS,<65,1,M,WHITE,HISPANIC OR LATINO,GBR,Treatment B,TRT02,Treatment B,TRT02,Treatment B,2,Treatment B,2,2025-05-29,2025-07-30,2025-05-29,2025-07-30,Y,Y,Y,Y,2025-05-29,Y
CLIN-2025-042,CLIN-2025-042-SITE01-0376,376,SITE01,33,YEARS,<65,1,M,BLACK,NOT HISPANIC OR LATINO,USA,Treatment A,TRT01,Treatment A,TRT01,Treatment A,1,Treatment A,1,2025-07-08,2025-09-09,2025-07-08,2025-09-09,Y,Y,Y,Y,2025-07-08,Y
CLIN-2025-042,CLIN-2025-042-SITE02-0377,377,SITE02,38,YEARS,<65,1,F,WHITE,NOT HISPANIC OR LATINO,USA,Placebo,PBO,Placebo,PBO,Placebo,3,Placebo,3,2025-07-04,2025-08-25,2025-07-04,2025-08-25,Y,Y,Y,Y,2025-07-04,N
CLIN-2025-042,CLIN-2025-042-SITE03-0378,378,SITE03,33,YEARS,<65,1,F,WHITE,HISPANIC OR LATINO,USA,Treatment A,TRT01,Treatment A,TRT01,Treatment A,1,Treatment A,1,2025-02-13,2025-04-18,2025-02-13,2025-04-18,Y,Y,Y,Y,2025-02-13,Y
CLIN-2025-042,CLIN-2025-042-SITE04-0379,379,SITE04,63,YEARS,<65,1,M,WHITE,NOT HISPANIC OR LATINO,CAN,Treatment A,TRT01,Treatment A,TRT01,Treatment A,1,Treatment A,1,2025-02-13,2025-04-10,2025-02-13,2025-04-10,Y,Y,Y,Y,2025-02-13,Y
CLIN-2025-042,CLIN-2025-042-SITE05-0380,380,SITE05,23,YEARS,<65,1,F,ASIAN,NOT HISPANIC OR LATINO,GBR,Placebo,PBO,Placebo,PBO,Placebo,3,Placebo,3,2025-05-22,2025-07-19,2025-05-22,2025-07-19,Y,Y,Y,Y,2025-05-22,Y
CLIN-2025-042,CLIN-2025-042-SITE01-0381,381,SITE01,20,YEARS,<65,1,M,WHITE,HISPANIC OR LATINO,USA,Treatment A,TRT01,Treatment A,TRT01,Treatment A,1,Treatment A,1,2025-01-23,2025-03-15,2025-01-23,2025-03-15,Y,Y,Y,Y,2025-01-23,Y
CLIN-2025-042,CLIN-2025-042-SITE02-0382,382,SITE02,20,YEARS,<65,1,M,WHITE,NOT HISPANIC OR LATINO,USA,Treatment A,TRT01,Treatment A,TRT01,Treatment A,1,Treatment A,1,2025-07-06,2025-08-26,2025-07-06,2025-08-26,Y,Y,Y,Y,2025-07-06,Y
CLIN-2025-042,CLIN-2025-042-SITE03-0383,383,SITE03,42,YEARS,<65,1,F,WHITE,NOT HISPANIC OR LATINO,USA,Treatment B,TRT02,Treatment B,TRT02,Treatment B,2,Treatment B,2,2025-06-08,2025-07-29,2025-06-08,2025-07-29,N,N,Y,Y,2025-06-08,Y
CLIN-2025-042,CLIN-2025-042-SITE04-0384,384,SITE04,46,YEARS,<65,1,M,WHITE,NOT HISPANIC OR LATINO,CAN,Treatment A,TRT01,Treatment A,TRT01,Treatment A,1,Treatment A,1,2025-02-17,2025-04-14,2025-02-17,2025-04-14,Y,Y,Y,Y,2025-02-17,Y
CLIN-2025-042,CLIN-2025-042-SITE05-0385,385,SITE05,54,YEARS,<65,1,M,OTHER,NOT HISPANIC OR LATINO,GBR,Treatment A,TRT01,Treatment A,TRT01,Treatment A,1,Treatment A,1,2025-05-12,2025-07-07,2025-05-12,2025-07-07,Y,Y,Y,Y,2025-05-12,Y
CLIN-2025-042,CLIN-2025-042-SITE01-0386,386,SITE01,26,YEARS,<65,1,F,ASIAN,NOT HISPANIC OR LATINO,USA,Treatment A,TRT01,Treatment A,TRT01,Treatment A,1,Treatment A,1,2025-03-12,2025-05-17,2025-03-12,2025-05-17,Y,Y,Y,Y,2025-03-12,N
CLIN-2025-042,CLIN-2025-042-SITE02-0387,387,SITE02,18,YEARS,<65,1,F,WHITE,NOT HISPANIC OR LATINO,USA,Placebo,PBO,Placebo,PBO,Placebo,3,Placebo,3,2025-03-09,2025-05-17,2025-03-09,2025-05-17,Y,Y,Y,Y,2025-03-09,Y
CLIN-2025-042,CLIN-2025-042-SITE03-0388,388,SITE03,72,YEARS,>=65,2,M,BLACK,HISPANIC OR LATINO,USA,Treatment A,TRT01,Treatment A,TRT01,Treatment A,1,Treatment A,1,2025-02-13,2025-04-07,2025-02-13,2025-04-07,Y,Y,Y,Y,2025-02-13,Y
CLIN-2025-042,CLIN-2025-042-SITE04-0389,389,SITE04,30,YEARS,<65,1,F,WHITE,NOT HISPANIC OR LATINO,CAN,Treatment B,TRT02,Treatment B,TRT02,Treatment B,2,Treatment B,2,2025-02-17,2025-04-25,2025-02-17,2025-04-25,N,N,Y,Y,2025-02-17,Y
CLIN-2025-042,CLIN-2025-042-SITE05-0390,390,SITE05,59,YEARS,<65,1,M,BLACK,NOT HISPANIC OR LATINO,GBR,Treatment A,TRT01,Treatment A,TRT01,Treatment A,1,Treatment A,1,2025-04-17,2025-06-23,2025-04-17,2025-06-23,Y,Y,N,Y,2025-04-17,Y
CLIN-2025-042,CLIN-2025-042-SITE01-0391,391,SITE01,32,YEARS,<65,1,M,WHITE,NOT HISPANIC OR LATINO,USA,Placebo,PBO,Placebo,PBO,Placebo,3,Placebo,3,2025-07-02,2025-08-26,2025-07-02,2025-08-26,Y,Y,Y,Y,2025-07-02,N
CLIN-2025-042,CLIN-2025-042-SITE02-0392,392,SITE02,61,YEARS,<65,1,M,BLACK,NOT HISPANIC OR LATINO,USA,Treatment A,TRT01,Treatment A,TRT01,Treatment A,1,Treatment A,1,2025-06-18,2025-08-08,2025-06-18,2025-08-08,Y,Y,Y,Y,2025-06-18,Y
CLIN-2025-042,CLIN-2025-042-SITE03-0393,393,SITE03,44,YEARS,<65,1,M,WHITE,NOT HISPANIC OR LATINO,USA,Treatment B,TRT02,Treatment B,TRT02,Treatment B,2,Treatment B,2,2025-07-10,2025-09-03,2025-07-10,2025-09-03,Y,Y,Y,Y,2025-07-10,Y
CLIN-2025-042,CLIN-2025-042-SITE04-0394,394,SITE04,74,YEARS,>=65,2,M,BLACK,NOT HISPANIC OR LATINO,CAN,Treatment B,TRT02,Treatment B,TRT02,Treatment B,2,Treatment B,2,2025-06-01,2025-08-04,2025-06-01,2025-08-04,Y,Y,Y,Y,2025-06-01,Y
CLIN-2025-042,CLIN-2025-042-SITE05-0395,395,SITE05,29,YEARS,<65,1,F,WHITE,NOT HISPANIC OR LATINO,GBR,Placebo,PBO,Placebo,PBO,Placebo,3,Placebo,3,2025-05-02,2025-07-01,2025-05-02,2025-07-01,Y,Y,Y,Y,2025-05-02,Y
CLIN-2025-042,CLIN-2025-042-SITE01-0396,396,SITE01,60,YEARS,<65,1,M,OTHER,NOT HISPANIC OR LATINO,USA,Treatment B,TRT02,Treatment B,TRT02,Treatment B,2,Treatment B,2,2025-02-25,2025-05-02,2025-02-25,2025-05-02,Y,Y,Y,Y,2025-02-25,Y
CLIN-2025-042,CLIN-2025-042-SITE02-0397,397,SITE02,23,YEARS,<65,1,M,WHITE,NOT HISPANIC OR LATINO,USA,Treatment B,TRT02,Treatment B,TRT02,Treatment B,2,Treatment B,2,2025-03-02,2025-05-06,2025-03-02,2025-05-06,Y,Y,Y,Y,2025-03-02,Y
CLIN-2025-042,CLIN-2025-042-SITE03-0398,398,SITE03,23,YEARS,<65,1,F,WHITE,NOT HISPANIC OR LATINO,USA,Treatment B,TRT02,Treatment B,TRT02,Treatment B,2,Treatment B,2,2025-06-04,2025-07-27,2025-06-04,2025-07-27,Y,Y,Y,Y,2025-06-04,Y
CLIN-2025-042,CLIN-2025-042-SITE04-0399,399,SITE04,43,YEARS,<65,1,F,ASIAN,NOT HISPANIC OR LATINO,CAN,Treatment B,TRT02,Treatment B,TRT02,Treatment B,2,Treatment B,2,2025-04-24,2025-06-25,2025-04-24,2025-06-25,Y,Y,Y,Y,2025-04-24,N
CLIN-2025-042,CLIN-2025-042-SITE05-0400,400,SITE05,38,YEARS,<65,1,M,BLACK,NOT HISPANIC OR LATINO,GBR,Treatment B,TRT02,Treatment B,TRT02,Treatment B,2,Treatment B,2,2025-03-25,2025-05-25,2025-03-25,2025-05-25,Y,Y,Y,Y,2025-03-25,Y
CLIN-2025-042,CLIN-2025-042-SITE01-0401,401,SITE01,18,YEARS,<65,1,M,ASIAN,HISPANIC OR LATINO,USA,Treatment B,TRT02,Treatment B,TRT02,Treatment B,2,Treatment B,2,2025-02-04,2025-04-05,2025-02-04,2025-04-05,Y,Y,Y,Y,2025-02-04,Y
CLIN-2025-042,CLIN-2025-042-SITE02-0402,402,SITE02,46,YEARS,<65,1,M,WHITE,NOT HISPANIC OR LATINO,USA,Treatment A,TRT01,Treatment A,TRT01,Treatment A,1,Treatment A,1,2025-02-07,2025-03-30,2025-02-07,2025-03-30,Y,Y,Y,Y,2025-02-07,Y
CLIN-2025-042,CLIN-2025-042-SITE03-0403,403,SITE03,43,YEARS,<65,1,F,WHITE,NOT HISPANIC OR LATINO,USA,Treatment B,TRT02,Treatment B,TRT02,Treatment B,2,Treatment B,2,2025-05-05,2025-06-29,2025-05-05,2025-06-29,Y,Y,Y,Y,2025-05-05,Y
CLIN-2025-042,CLIN-2025-042-SITE04-0404,404,SITE04,45,YEARS,<65,1,M,WHITE,NOT HISPANIC OR LATINO,CAN,Treatment B,TRT02,Treatment B,TRT02,Treatment B,2,Treatment B,2,2025-03-20,2025-05-28,2025-03-20,2025-05-28,Y,Y,Y,Y,2025-03-20,Y
CLIN-2025-042,CLIN-2025-042-SITE05-0405,405,SITE05,41,YEARS,<65,1,F,WHITE,NOT HISPANIC OR LATINO,GBR,Treatment A,TRT01,Treatment A,TRT01,Treatment A,1,Treatment A,1,2025-02-10,2025-04-10,2025-02-10,2025-04-10,Y,Y,Y,Y,2025-02-10,Y
CLIN-2025-042,CLIN-2025-042-SITE01-0406,406,SITE01,47,YEARS,<65,1,M,WHITE,NOT HISPANIC OR LATINO,USA,Treatment A,TRT01,Treatment A,TRT01,Treatment A,1,Treatment A,1,2025-02-16,2025-04-13,2025-02-16,2025-04-13,N,Y,Y,Y,2025-02-16,Y
CLIN-2025-042,CLIN-2025-042-SITE02-0407,407,SITE02,55,YEARS,<65,1,F,WHITE,NOT HISPANIC OR LATINO,USA,Treatment A,TRT01,Treatment A,TRT01,Treatment A,1,Treatment A,1,2025-05-29,2025-07-21,2025-05-29,2025-07-21,Y,Y,N,Y,2025-05-29,N
CLIN-2025-042,CLIN-2025-042-SITE03-0408,408,SITE03,55,YEARS,<65,1,F,WHITE,HISPANIC OR LATINO,USA,Treatment A,TRT01,Treatment A,TRT01,Treatment A,1,Treatment A,1,2025-06-20,2025-08-17,2025-06-20,2025-08-17,Y,Y,Y,Y,2025-06-20,Y
CLIN-2025-042,CLIN-2025-042-SITE04-0409,409,SITE04,45,YEARS,<65,1,F,OTHER,NOT HISPANIC OR LATINO,CAN,Treatment A,TRT01,Treatment A,TRT01,Treatment A,1,Treatment A,1,2025-07-05,2025-08-27,2025-07-05,2025-08-27,Y,Y,Y,Y,2025-07-05,Y
CLIN-2025-042,CLIN-2025-042-SITE05-0410,410,SITE05,48,YEARS,<65,1,F,ASIAN,HISPANIC OR LATINO,GBR,Treatment A,TRT01,Treatment A,TRT01,Treatment A,1,Treatment A,1,2025-03-14,2025-05-14,2025-03-14,2025-05-14,Y,Y,Y,Y,2025-03-14,Y
CLIN-2025-042,CLIN-2025-042-SITE01-0411,411,SITE01,58,YEARS,<65,1,F,WHITE,NOT HISPANIC OR LATINO,USA,Treatment A,TRT01,Treatment A,TRT01,Treatment A,1,Treatment A,1,2025-04-07,2025-06-06,2025-04-07,2025-06-06,Y,Y,Y,Y,2025-04-07,Y
CLIN-2025-042,CLIN-2025-042-SITE02-0412,412,SITE02,45,YEARS,<65,1,M,BLACK,NOT HISPANIC OR LATINO,USA,Placebo,PBO,Placebo,PBO,Placebo,3,Placebo,3,2025-07-08,2025-09-15,2025-07-08,2025-09-15,Y,Y,Y,Y,2025-07-08,Y
CLIN-2025-042,CLIN-2025-042-SITE03-0413,413,SITE03,44,YEARS,<65,1,F,WHITE,NOT HISPANIC OR LATINO,USA,Treatment A,TRT01,Treatment A,TRT01,Treatment A,1,Treatment A,1,2025-07-07,2025-09-12,2025-07-07,2025-09-12,Y,Y,N,Y,2025-07-07,Y
CLIN-2025-042,CLIN-2025-042-SITE04-0414,414,SITE04,56,YEARS,<65,1,M,WHITE,NOT HISPANIC OR LATINO,CAN,Treatment B,TRT02,Treatment B,TRT02,Treatment B,2,Treatment B,2,2025-06-29,2025-08-19,2025-06-29,2025-08-19,Y,Y,Y,Y,2025-06-29,N
CLIN-2025-042,CLIN-2025-042-SITE05-0415,415,SITE05,42,YEARS,<65,1,F,WHITE,NOT HISPANIC OR LATINO,GBR,Treatment A,TRT01,Treatment A,TRT01,Treatment A,1,Treatment A,1,2025-02-21,2025-04-29,2025-02-21,2025-04-29,Y,Y,Y,Y,2025-02-21,N
CLIN-2025-042,CLIN-2025-042-SITE01-0416,416,SITE01,25,YEARS,<65,1,M,OTHER,NOT HISPANIC OR LATINO,USA,Treatment B,TRT02,Treatment B,TRT02,Treatment B,2,Treatment B,2,2025-05-02,2025-06-21,2025-05-02,2025-06-21,Y,Y,Y,Y,2025-05-02,N
CLIN-2025-042,CLIN-2025-042-SITE02-0417,417,SITE02,21,YEARS,<65,1,M,WHITE,NOT HISPANIC OR LATINO,USA,Treatment A,TRT01,Treatment A,TRT01,Treatment A,1,Treatment A,1,2025-03-25,2025-05-22,2025-03-25,2025-05-22,Y,Y,Y,Y,2025-03-25,Y
CLIN-2025-042,CLIN-2025-042-SITE03-0418,418,SITE03,51,YEARS,<65,1,F,WHITE,NOT HISPANIC OR LATINO,USA,Treatment A,TRT01,Treatment A,TRT01,Treatment A,1,Treatment A,1,2025-05-12,2025-07-18,2025-05-12,2025-07-18,Y,Y,Y,Y,2025-05-12,Y
CLIN-2025-042,CLIN-2025-042-SITE04-0419,419,SITE04,51,YEARS,<65,1,F,BLACK,NOT HISPANIC OR LATINO,CAN,Placebo,PBO,Placebo,PBO,Placebo,3,Placebo,3,2025-04-22,2025-06-27,2025-04-22,2025-06-27,Y,Y,Y,Y,2025-04-22,Y
CLIN-2025-042,CLIN-2025-042-SITE05-0420,420,SITE05,45,YEARS,<65,1,M,WHITE,NOT HISPANIC OR LATINO,GBR,Treatment B,TRT02,Treatment B,TRT02,Treatment B,2,Treatment B,2,2025-04-20,2025-06-12,2025-04-20,2025-06-12,Y,Y,Y,Y,2025-04-20,N
CLIN-2025-042,CLIN-2025-042-SITE01-0421,421,SITE01,40,YEARS,<65,1,F,WHITE,NOT HISPANIC OR LATINO,USA,Treatment A,TRT01,Treatment A,TRT01,Treatment A,1,Treatment A,1,2025-04-12,2025-06-18,2025-04-12,2025-06-18,Y,Y,Y,Y,2025-04-12,Y
CLIN-2025-042,CLIN-2025-042-SITE02-0422,422,SITE02,44,YEARS,<65,1,M,ASIAN,NOT HISPANIC OR LATINO,USA,Placebo,PBO,Placebo,PBO,Placebo,3,Placebo,3,2025-07-03,2025-09-01,2025-07-03,2025-09-01,N,Y,Y,Y,2025-07-03,Y
CLIN-2025-042,CLIN-2025-042-SITE03-0423,423,SITE03,58,YEARS,<65,1,M,WHITE,HISPANIC OR LATINO,USA,Treatment B,TRT02,Treatment B,TRT02,Treatment B,2,Treatment B,2,2025-07-09,2025-09-01,2025-07-09,2025-09-01,Y,Y,Y,Y,2025-07-09,Y
CLIN-2025-042,CLIN-2025-042-SITE04-0424,424,SITE04,41,YEARS,<65,1,F,WHITE,NOT HISPANIC OR LATINO,CAN,Treatment A,TRT01,Treatment A,TRT01,Treatment A,1,Treatment A,1,2025-06-18,2025-08-08,2025-06-18,2025-08-08,Y,Y,Y,Y,2025-06-18,Y
CLIN-2025-042,CLIN-2025-042-SITE05-0425,425,SITE05,19,YEARS,<65,1,M,WHITE,HISPANIC OR LATINO,GBR,Treatment A,TRT01,Treatment A,TRT01,Treatment A,1,Treatment A,1,2025-06-11,2025-08-02,2025-06-11,2025-08-02,N,N,Y,Y,2025-06-11,Y
CLIN-2025-042,CLIN-2025-042-SITE01-0426,426,SITE01,38,YEARS,<65,1,F,WHITE,NOT HISPANIC OR LATINO,USA,Treatment A,TRT01,Treatment A,TRT01,Treatment A,1,Treatment A,1,2025-04-15,2025-06-21,2025-04-15,2025-06-21,N,N,Y,Y,2025-04-15,Y
CLIN-2025-042,CLIN-2025-042-SITE02-0427,427,SITE02,32,YEARS,<65,1,F,OTHER,NOT HISPANIC OR LATINO,USA,Placebo,PBO,Placebo,PBO,Placebo,3,Placebo,3,2025-05-10,2025-07-08,2025-05-10,2025-07-08,Y,Y,Y,Y,2025-05-10,Y
CLIN-2025-042,CLIN-2025-042-SITE03-0428,428,SITE03,56,YEARS,<65,1,F,WHITE,NOT HISPANIC OR LATINO,USA,Treatment B,TRT02,Treatment B,TRT02,Treatment B,2,Treatment B,2,2025-07-02,2025-08-24,2025-07-02,2025-08-24,N,N,Y,Y,2025-07-02,Y
CLIN-2025-042,CLIN-2025-042-SITE04-0429,429,SITE04,56,YEARS,<65,1,M,ASIAN,NOT HISPANIC OR LATINO,CAN,Treatment B,TRT02,Treatment B,TRT02,Treatment B,2,Treatment B,2,2025-02-09,2025-04-18,2025-02-09,2025-04-18,Y,Y,Y,Y,2025-02-09,Y
CLIN-2025-042,CLIN-2025-042-SITE05-0430,430,SITE05,40,YEARS,<65,1,F,WHITE,HISPANIC OR LATINO,GBR,Treatment B,TRT02,Treatment B,TRT02,Treatment B,2,Treatment B,2,2025-05-26,2025-07-24,2025-05-26,2025-07-24,Y,Y,Y,Y,2025-05-26,Y
CLIN-2025-042,CLIN-2025-042-SITE01-0431,431,SITE01,46,YEARS,<65,1,F,WHITE,HISPANIC OR LATINO,USA,Treatment A,TRT01,Treatment A,TRT01,Treatment A,1,Treatment A,1,2025-05-06,2025-07-13,2025-05-06,2025-07-13,Y,Y,Y,Y,2025-05-06,Y
CLIN-2025-042,CLIN-2025-042-SITE02-0432,432,SITE02,40,YEARS,<65,1,M,ASIAN,NOT HISPANIC OR LATINO,USA,Placebo,PBO,Placebo,PBO,Placebo,3,Placebo,3,2025-05-23,2025-07-14,2025-05-23,2025-07-14,Y,Y,Y,Y,2025-05-23,Y
CLIN-2025-042,CLIN-2025-042-SITE03-0433,433,SITE03,18,YEARS,<65,1,F,WHITE,NOT HISPANIC OR LATINO,USA,Treatment B,TRT02,Treatment B,TRT02,Treatment B,2,Treatment B,2,2025-02-07,2025-04-07,2025-02-07,2025-04-07,N,Y,Y,Y,2025-02-07,Y
CLIN-2025-042,CLIN-2025-042-SITE04-0434,434,SITE04,63,YEARS,<65,1,M,WHITE,HISPANIC OR LATINO,CAN,Placebo,PBO,Placebo,PBO,Placebo,3,Placebo,3,2025-04-19,2025-06-16,2025-04-19,2025-06-16,Y,Y,Y,Y,2025-04-19,Y
CLIN-2025-042,CLIN-2025-042-SITE05-0435,435,SITE05,28,YEARS,<65,1,M,WHITE,HISPANIC OR LATINO,GBR,Treatment A,TRT01,Treatment A,TRT01,Treatment A,1,Treatment A,1,2025-06-01,2025-07-28,2025-06-01,2025-07-28,Y,Y,Y,Y,2025-06-01,Y
CLIN-2025-042,CLIN-2025-042-SITE01-0436,436,SITE01,28,YEARS,<65,1,F,WHITE,NOT HISPANIC OR LATINO,USA,Treatment B,TRT02,Treatment B,TRT02,Treatment B,2,Treatment B,2,2025-03-31,2025-05-25,2025-03-31,2025-05-25,Y,Y,Y,Y,2025-03-31,Y
CLIN-2025-042,CLIN-2025-042-SITE02-0437,437,SITE02,36,YEARS,<65,1,F,WHITE,HISPANIC OR LATINO,USA,Treatment B,TRT02,Treatment B,TRT02,Treatment B,2,Treatment B,2,2025-03-13,2025-05-19,2025-03-13,2025-05-19,Y,Y,Y,Y,2025-03-13,Y
CLIN-2025-042,CLIN-2025-042-SITE03-0438,438,SITE03,56,YEARS,<65,1,F,BLACK,NOT HISPANIC OR LATINO,USA,Treatment A,TRT01,Treatment A,TRT01,Treatment A,1,Treatment A,1,2025-03-02,2025-04-24,2025-03-02,2025-04-24,Y,Y,Y,Y,2025-03-02,Y
CLIN-2025-042,CLIN-2025-042-SITE04-0439,439,SITE04,52,YEARS,<65,1,F,WHITE,NOT HISPANIC OR LATINO,CAN,Treatment B,TRT02,Treatment B,TRT02,Treatment B,2,Treatment B,2,2025-01-30,2025-03-30,2025-01-30,2025-03-30,Y,Y,Y,Y,2025-01-30,Y
CLIN-2025-042,CLIN-2025-042-SITE05-0440,440,SITE05,36,YEARS,<65,1,F,WHITE,HISPANIC OR LATINO,GBR,Treatment A,TRT01,Treatment A,TRT01,Treatment A,1,Treatment A,1,2025-01-31,2025-03-25,2025-01-31,2025-03-25,Y,Y,Y,Y,2025-01-31,Y
CLIN-2025-042,CLIN-2025-042-SITE01-0441,441,SITE01,61,YEARS,<65,1,M,WHITE,HISPANIC OR LATINO,USA,Treatment B,TRT02,Treatment B,TRT02,Treatment B,2,Treatment B,2,2025-03-20,2025-05-27,2025-03-20,2025-05-27,N,N,Y,Y,2025-03-20,N
CLIN-2025-042,CLIN-2025-042-SITE02-0442,442,SITE02,59,YEARS,<65,1,M,WHITE,NOT HISPANIC OR LATINO,USA,Treatment B,TRT02,Treatment B,TRT02,Treatment B,2,Treatment B,2,2025-06-30,2025-09-04,2025-06-30,2025-09-04,Y,Y,Y,Y,2025-06-30,Y
CLIN-2025-042,CLIN-2025-042-SITE03-0443,443,SITE03,49,YEARS,<65,1,M,BLACK,NOT HISPANIC OR LATINO,USA,Treatment A,TRT01,Treatment A,TRT01,Treatment A,1,Treatment A,1,2025-04-08,2025-06-16,2025-04-08,2025-06-16,Y,Y,Y,Y,2025-04-08,Y
CLIN-2025-042,CLIN-2025-042-SITE04-0444,444,SITE04,38,YEARS,<65,1,M,WHITE,NOT HISPANIC OR LATINO,CAN,Treatment B,TRT02,Treatment B,TRT02,Treatment B,2,Treatment B,2,2025-04-05,2025-05-27,2025-04-05,2025-05-27,Y,Y,Y,Y,2025-04-05,Y
CLIN-2025-042,CLIN-2025-042-SITE05-0445,445,SITE05,48,YEARS,<65,1,F,WHITE,NOT HISPANIC OR LATINO,GBR,Placebo,PBO,Placebo,PBO,Placebo,3,Placebo,3,2025-05-07,2025-07-14,2025-05-07,2025-07-14,Y,Y,Y,Y,2025-05-07,N
CLIN-2025-042,CLIN-2025-042-SITE01-0446,446,SITE01,40,YEARS,<65,1,F,WHITE,NOT HISPANIC OR LATINO,USA,Treatment A,TRT01,Treatment A,TRT01,Treatment A,1,Treatment A,1,2025-03-14,2025-05-21,2025-03-14,2025-05-21,Y,Y,Y,Y,2025-03-14,Y
CLIN-2025-042,CLIN-2025-042-SITE02-0447,447,SITE02,52,YEARS,<65,1,F,WHITE,NOT HISPANIC OR LATINO,USA,Treatment B,TRT02,Treatment B,TRT02,Treatment B,2,Treatment B,2,2025-02-10,2025-04-16,2025-02-10,2025-04-16,Y,Y,Y,Y,2025-02-10,Y
CLIN-2025-042,CLIN-2025-042-SITE03-0448,448,SITE03,37,YEARS,<65,1,F,WHITE,NOT HISPANIC OR LATINO,USA,Treatment A,TRT01,Treatment A,TRT01,Treatment A,1,Treatment A,1,2025-04-13,2025-06-21,2025-04-13,2025-06-21,Y,Y,Y,Y,2025-04-13,Y
CLIN-2025-042,CLIN-2025-042-SITE04-0449,449,SITE04,51,YEARS,<65,1,M,ASIAN,NOT HISPANIC OR LATINO,CAN,Placebo,PBO,Placebo,PBO,Placebo,3,Placebo,3,2025-03-12,2025-05-05,2025-03-12,2025-05-05,Y,Y,Y,Y,2025-03-12,Y
CLIN-2025-042,CLIN-2025-042-SITE05-0450,450,SITE05,42,YEARS,<65,1,F,WHITE,HISPANIC OR LATINO,GBR,Treatment B,TRT02,Treatment B,TRT02,Treatment B,2,Treatment B,2,2025-03-27,2025-05-16,2025-03-27,2025-05-16,Y,Y,Y,Y,2025-03-27,Y
CLIN-2025-042,CLIN-2025-042-SITE01-0451,451,SITE01,35,YEARS,<65,1,M,WHITE,NOT HISPANIC OR LATINO,USA,Treatment A,TRT01,Treatment A,TRT01,Treatment A,1,Treatment A,1,2025-06-08,2025-08-02,2025-06-08,2025-08-02,Y,Y,Y,Y,2025-06-08,Y
CLIN-2025-042,CLIN-2025-042-SITE02-0452,452,SITE02,68,YEARS,>=65,2,F,WHITE,NOT HISPANIC OR LATINO,USA,Treatment A,TRT01,Treatment A,TRT01,Treatment A,1,Treatment A,1,2025-05-06,2025-07-03,2025-05-06,2025-07-03,Y,Y,Y,Y,2025-05-06,N
CLIN-2025-042,CLIN-2025-042-SITE03-0453,453,SITE03,36,YEARS,<65,1,F,BLACK,NOT HISPANIC OR LATINO,USA,Treatment A,TRT01,Treatment A,TRT01,Treatment A,1,Treatment A,1,2025-02-16,2025-04-19,2025-02-16,2025-04-19,Y,Y,Y,Y,2025-02-16,Y
CLIN-2025-042,CLIN-2025-042-SITE04-0454,454,SITE04,50,YEARS,<65,1,F,ASIAN,NOT HISPANIC OR LATINO,CAN,Treatment B,TRT02,Treatment B,TRT02,Treatment B,2,Treatment B,2,2025-06-11,2025-08-17,2025-06-11,2025-08-17,Y,Y,Y,Y,2025-06-11,Y
CLIN-2025-042,CLIN-2025-042-SITE05-0455,455,SITE05,41,YEARS,<65,1,F,BLACK,HISPANIC OR LATINO,GBR,Treatment B,TRT02,Treatment B,TRT02,Treatment B,2,Treatment B,2,2025-01-31,2025-03-23,2025-01-31,2025-03-23,Y,Y,N,Y,2025-01-31,Y
CLIN-2025-042,CLIN-2025-042-SITE01-0456,456,SITE01,31,YEARS,<65,1,M,WHITE,NOT HISPANIC OR LATINO,USA,Treatment B,TRT02,Treatment B,TRT02,Treatment B,2,Treatment B,2,2025-07-10,2025-09-09,2025-07-10,2025-09-09,Y,Y,N,Y,2025-07-10,Y
CLIN-2025-042,CLIN-2025-042-SITE02-0457,457,SITE02,49,YEARS,<65,1,F,WHITE,HISPANIC OR LATINO,USA,Treatment B,TRT02,Treatment B,TRT02,Treatment B,2,Treatment B,2,2025-01-16,2025-03-16,2025-01-16,2025-03-16,Y,Y,Y,Y,2025-01-16,Y
CLIN-2025-042,CLIN-2025-042-SITE03-0458,458,SITE03,28,YEARS,<65,1,F,WHITE,NOT HISPANIC OR LATINO,USA,Treatment A,TRT01,Treatment A,TRT01,Treatment A,1,Treatment A,1,2025-02-24,2025-05-04,2025-02-24,2025-05-04,Y,Y,Y,Y,2025-02-24,N
CLIN-2025-042,CLIN-2025-042-SITE04-0459,459,SITE04,20,YEARS,<65,1,M,BLACK,HISPANIC OR LATINO,CAN,Treatment A,TRT01,Treatment A,TRT01,Treatment A,1,Treatment A,1,2025-02-17,2025-04-10,2025-02-17,2025-04-10,Y,Y,Y,Y,2025-02-17,Y
CLIN-2025-042,CLIN-2025-042-SITE05-0460,460,SITE05,75,YEARS,>=65,2,F,ASIAN,HISPANIC OR LATINO,GBR,Treatment B,TRT02,Treatment B,TRT02,Treatment B,2,Treatment B,2,2025-03-14,2025-05-04,2025-03-14,2025-05-04,Y,Y,Y,Y,2025-03-14,Y
CLIN-2025-042,CLIN-2025-042-SITE01-0461,461,SITE01,50,YEARS,<65,1,F,BLACK,HISPANIC OR LATINO,USA,Treatment A,TRT01,Treatment A,TRT01,Treatment A,1,Treatment A,1,2025-04-03,2025-06-10,2025-04-03,2025-06-10,Y,Y,Y,Y,2025-04-03,Y
CLIN-2025-042,CLIN-2025-042-SITE02-0462,462,SITE02,25,YEARS,<65,1,F,WHITE,NOT HISPANIC OR LATINO,USA,Treatment B,TRT02,Treatment B,TRT02,Treatment B,2,Treatment B,2,2025-05-07,2025-07-08,2025-05-07,2025-07-08,Y,Y,Y,Y,2025-05-07,Y
CLIN-2025-042,CLIN-2025-042-SITE03-0463,463,SITE03,53,YEARS,<65,1,F,OTHER,NOT HISPANIC OR LATINO,USA,Placebo,PBO,Placebo,PBO,Placebo,3,Placebo,3,2025-06-27,2025-08-24,2025-06-27,2025-08-24,Y,Y,Y,Y,2025-06-27,Y
CLIN-2025-042,CLIN-2025-042-SITE04-0464,464,SITE04,29,YEARS,<65,1,M,BLACK,NOT HISPANIC OR LATINO,CAN,Treatment A,TRT01,Treatment A,TRT01,Treatment A,1,Treatment A,1,2025-03-09,2025-05-15,2025-03-09,2025-05-15,Y,Y,Y,Y,2025-03-09,Y
CLIN-2025-042,CLIN-2025-042-SITE05-0465,465,SITE05,71,YEARS,>=65,2,M,WHITE,NOT HISPANIC OR LATINO,GBR,Treatment B,TRT02,Treatment B,TRT02,Treatment B,2,Treatment B,2,2025-01-29,2025-03-23,2025-01-29,2025-03-23,N,N,Y,Y,2025-01-29,Y
CLIN-2025-042,CLIN-2025-042-SITE01-0466,466,SITE01,65,YEARS,>=65,2,M,ASIAN,NOT HISPANIC OR LATINO,USA,Treatment B,TRT02,Treatment B,TRT02,Treatment B,2,Treatment B,2,2025-07-01,2025-08-26,2025-07-01,2025-08-26,Y,Y,Y,Y,2025-07-01,Y
CLIN-2025-042,CLIN-2025-042-SITE02-0467,467,SITE02,31,YEARS,<65,1,M,WHITE,NOT HISPANIC OR LATINO,USA,Treatment A,TRT01,Treatment A,TRT01,Treatment A,1,Treatment A,1,2025-03-18,2025-05-07,2025-03-18,2025-05-07,N,N,Y,Y,2025-03-18,Y
CLIN-2025-042,CLIN-2025-042-SITE03-0468,468,SITE03,32,YEARS,<65,1,F,WHITE,NOT HISPANIC OR LATINO,USA,Treatment B,TRT02,Treatment B,TRT02,Treatment B,2,Treatment B,2,2025-03-13,2025-05-02,2025-03-13,2025-05-02,Y,Y,Y,Y,2025-03-13,N
CLIN-2025-042,CLIN-2025-042-SITE04-0469,469,SITE04,58,YEARS,<65,1,M,WHITE,NOT HISPANIC OR LATINO,CAN,Placebo,PBO,Placebo,PBO,Placebo,3,Placebo,3,2025-02-21,2025-04-30,2025-02-21,2025-04-30,Y,Y,Y,Y,2025-02-21,Y
CLIN-2025-042,CLIN-2025-042-SITE05-0470,470,SITE05,34,YEARS,<65,1,M,BLACK,NOT HISPANIC OR LATINO,GBR,Treatment A,TRT01,Treatment A,TRT01,Treatment A,1,Treatment A,1,2025-04-15,2025-06-17,2025-04-15,2025-06-17,Y,Y,Y,Y,2025-04-15,Y
CLIN-2025-042,CLIN-2025-042-SITE01-0471,471,SITE01,57,YEARS,<65,1,M,BLACK,HISPANIC OR LATINO,USA,Treatment A,TRT01,Treatment A,TRT01,Treatment A,1,Treatment A,1,2025-05-01,2025-06-26,2025-05-01,2025-06-26,Y,Y,Y,Y,2025-05-01,Y
CLIN-2025-042,CLIN-2025-042-SITE02-0472,472,SITE02,40,YEARS,<65,1,F,ASIAN,NOT HISPANIC OR LATINO,USA,Treatment B,TRT02,Treatment B,TRT02,Treatment B,2,Treatment B,2,2025-03-13,2025-05-12,2025-03-13,2025-05-12,Y,Y,Y,Y,2025-03-13,Y
CLIN-2025-042,CLIN-2025-042-SITE03-0473,473,SITE03,45,YEARS,<65,1,F,BLACK,HISPANIC OR LATINO,USA,Treatment B,TRT02,Treatment B,TRT02,Treatment B,2,Treatment B,2,2025-05-01,2025-06-24,2025-05-01,2025-06-24,Y,Y,Y,Y,2025-05-01,Y
CLIN-2025-042,CLIN-2025-042-SITE04-0474,474,SITE04,18,YEARS,<65,1,M,ASIAN,NOT HISPANIC OR LATINO,CAN,Treatment A,TRT01,Treatment A,TRT01,Treatment A,1,Treatment A,1,2025-05-29,2025-07-28,2025-05-29,2025-07-28,Y,Y,Y,Y,2025-05-29,N
CLIN-2025-042,CLIN-2025-042-SITE05-0475,475,SITE05,67,YEARS,>=65,2,M,ASIAN,NOT HISPANIC OR LATINO,GBR,Treatment B,TRT02,Treatment B,TRT02,Treatment B,2,Treatment B,2,2025-06-29,2025-09-04,2025-06-29,2025-09-04,Y,Y,Y,Y,2025-06-29,Y
CLIN-2025-042,CLIN-2025-042-SITE01-0476,476,SITE01,46,YEARS,<65,1,M,ASIAN,NOT HISPANIC OR LATINO,USA,Treatment B,TRT02,Treatment B,TRT02,Treatment B,2,Treatment B,2,2025-03-02,2025-05-10,2025-03-02,2025-05-10,Y,Y,N,Y,2025-03-02,Y
CLIN-2025-042,CLIN-2025-042-SITE02-0477,477,SITE02,24,YEARS,<65,1,F,ASIAN,HISPANIC OR LATINO,USA,Placebo,PBO,Placebo,PBO,Placebo,3,Placebo,3,2025-02-10,2025-04-10,2025-02-10,2025-04-10,Y,Y,Y,Y,2025-02-10,Y
CLIN-2025-042,CLIN-2025-042-SITE03-0478,478,SITE03,25,YEARS,<65,1,M,WHITE,NOT HISPANIC OR LATINO,USA,Treatment A,TRT01,Treatment A,TRT01,Treatment A,1,Treatment A,1,2025-02-15,2025-04-10,2025-02-15,2025-04-10,Y,Y,Y,Y,2025-02-15,Y
CLIN-2025-042,CLIN-2025-042-SITE04-0479,479,SITE04,60,YEARS,<65,1,M,WHITE,NOT HISPANIC OR LATINO,CAN,Placebo,PBO,Placebo,PBO,Placebo,3,Placebo,3,2025-04-21,2025-06-26,2025-04-21,2025-06-26,Y,Y,Y,Y,2025-04-21,Y
CLIN-2025-042,CLIN-2025-042-SITE05-0480,480,SITE05,18,YEARS,<65,1,M,WHITE,NOT HISPANIC OR LATINO,GBR,Placebo,PBO,Placebo,PBO,Placebo,3,Placebo,3,2025-07-03,2025-09-07,2025-07-03,2025-09-07,Y,Y,Y,Y,2025-07-03,Y
CLIN-2025-042,CLIN-2025-042-SITE01-0481,481,SITE01,53,YEARS,<65,1,F,WHITE,NOT HISPANIC OR LATINO,USA,Treatment A,TRT01,Treatment A,TRT01,Treatment A,1,Treatment A,1,2025-02-12,2025-04-17,2025-02-12,2025-04-17,Y,Y,Y,Y,2025-02-12,Y
CLIN-2025-042,CLIN-2025-042-SITE02-0482,482,SITE02,31,YEARS,<65,1,F,BLACK,NOT HISPANIC OR LATINO,USA,Treatment A,TRT01,Treatment A,TRT01,Treatment A,1,Treatment A,1,2025-04-28,2025-06-18,2025-04-28,2025-06-18,Y,Y,Y,Y,2025-04-28,Y
CLIN-2025-042,CLIN-2025-042-SITE03-0483,483,SITE03,53,YEARS,<65,1,M,WHITE,NOT HISPANIC OR LATINO,USA,Treatment B,TRT02,Treatment B,TRT02,Treatment B,2,Treatment B,2,2025-06-21,2025-08-26,2025-06-21,2025-08-26,Y,Y,Y,Y,2025-06-21,Y
CLIN-2025-042,CLIN-2025-042-SITE04-0484,484,SITE04,50,YEARS,<65,1,M,WHITE,NOT HISPANIC OR LATINO,CAN,Treatment B,TRT02,Treatment B,TRT02,Treatment B,2,Treatment B,2,2025-06-25,2025-08-22,2025-06-25,2025-08-22,Y,Y,Y,Y,2025-06-25,Y
CLIN-2025-042,CLIN-2025-042-SITE05-0485,485,SITE05,51,YEARS,<65,1,M,OTHER,NOT HISPANIC OR LATINO,GBR,Treatment A,TRT01,Treatment A,TRT01,Treatment A,1,Treatment A,1,2025-05-21,2025-07-28,2025-05-21,2025-07-28,Y,Y,Y,Y,2025-05-21,Y
CLIN-2025-042,CLIN-2025-042-SITE01-0486,486,SITE01,68,YEARS,>=65,2,F,BLACK,NOT HISPANIC OR LATINO,USA,Treatment B,TRT02,Treatment B,TRT02,Treatment B,2,Treatment B,2,2025-02-02,2025-03-26,2025-02-02,2025-03-26,Y,Y,Y,Y,2025-02-02,Y
CLIN-2025-042,CLIN-2025-042-SITE02-0487,487,SITE02,29,YEARS,<65,1,F,WHITE,HISPANIC OR LATINO,USA,Treatment B,TRT02,Treatment B,TRT02,Treatment B,2,Treatment B,2,2025-06-04,2025-07-24,2025-06-04,2025-07-24,Y,Y,Y,Y,2025-06-04,N
CLIN-2025-042,CLIN-2025-042-SITE03-0488,488,SITE03,46,YEARS,<65,1,M,WHITE,NOT HISPANIC OR LATINO,USA,Treatment A,TRT01,Treatment A,TRT01,Treatment A,1,Treatment A,1,2025-05-22,2025-07-27,2025-05-22,2025-07-27,Y,Y,Y,Y,2025-05-22,Y
CLIN-2025-042,CLIN-2025-042-SITE04-0489,489,SITE04,44,YEARS,<65,1,M,WHITE,NOT HISPANIC OR LATINO,CAN,Treatment A,TRT01,Treatment A,TRT01,Treatment A,1,Treatment A,1,2025-03-04,2025-04-29,2025-03-04,2025-04-29,Y,Y,Y,Y,2025-03-04,Y
CLIN-2025-042,CLIN-2025-042-SITE05-0490,490,SITE05,33,YEARS,<65,1,M,BLACK,NOT HISPANIC OR LATINO,GBR,Treatment B,TRT02,Treatment B,TRT02,Treatment B,2,Treatment B,2,2025-05-18,2025-07-22,2025-05-18,2025-07-22,Y,Y,Y,Y,2025-05-18,Y
CLIN-2025-042,CLIN-2025-042-SITE01-0491,491,SITE01,39,YEARS,<65,1,M,WHITE,NOT HISPANIC OR LATINO,USA,Placebo,PBO,Placebo,PBO,Placebo,3,Placebo,3,2025-04-10,2025-06-14,2025-04-10,2025-06-14,Y,Y,Y,Y,2025-04-10,Y
CLIN-2025-042,CLIN-2025-042-SITE02-0492,492,SITE02,34,YEARS,<65,1,M,WHITE,NOT HISPANIC OR LATINO,USA,Placebo,PBO,Placebo,PBO,Placebo,3,Placebo,3,2025-07-02,2025-09-02,2025-07-02,2025-09-02,Y,Y,Y,Y,2025-07-02,Y
CLIN-2025-042,CLIN-2025-042-SITE03-0493,493,SITE03,24,YEARS,<65,1,M,BLACK,NOT HISPANIC OR LATINO,USA,Treatment B,TRT02,Treatment B,TRT02,Treatment B,2,Treatment B,2,2025-06-09,2025-08-16,2025-06-09,2025-08-16,Y,Y,Y,Y,2025-06-09,Y
CLIN-2025-042,CLIN-2025-042-SITE04-0494,494,SITE04,43,YEARS,<65,1,M,WHITE,HISPANIC OR LATINO,CAN,Treatment B,TRT02,Treatment B,TRT02,Treatment B,2,Treatment B,2,2025-03-04,2025-05-05,2025-03-04,2025-05-05,Y,Y,Y,Y,2025-03-04,Y
CLIN-2025-042,CLIN-2025-042-SITE05-0495,495,SITE05,35,YEARS,<65,1,M,WHITE,NOT HISPANIC OR LATINO,GBR,Treatment A,TRT01,Treatment A,TRT01,Treatment A,1,Treatment A,1,2025-05-17,2025-07-15,2025-05-17,2025-07-15,Y,Y,Y,Y,2025-05-17,N
CLIN-2025-042,CLIN-2025-042-SITE01-0496,496,SITE01,27,YEARS,<65,1,M,WHITE,NOT HISPANIC OR LATINO,USA,Treatment A,TRT01,Treatment A,TRT01,Treatment A,1,Treatment A,1,2025-03-15,2025-05-23,2025-03-15,2025-05-23,Y,Y,Y,Y,2025-03-15,Y
CLIN-2025-042,CLIN-2025-042-SITE02-0497,497,SITE02,33,YEARS,<65,1,M,WHITE,NOT HISPANIC OR LATINO,USA,Treatment A,TRT01,Treatment A,TRT01,Treatment A,1,Treatment A,1,2025-05-24,2025-07-29,2025-05-24,2025-07-29,Y,Y,N,Y,2025-05-24,Y
CLIN-2025-042,CLIN-2025-042-SITE03-0498,498,SITE03,48,YEARS,<65,1,F,WHITE,HISPANIC OR LATINO,USA,Treatment B,TRT02,Treatment B,TRT02,Treatment B,2,Treatment B,2,2025-03-13,2025-05-06,2025-03-13,2025-05-06,Y,Y,Y,Y,2025-03-13,Y
CLIN-2025-042,CLIN-2025-042-SITE04-0499,499,SITE04,32,YEARS,<65,1,M,BLACK,NOT HISPANIC OR LATINO,CAN,Treatment B,TRT02,Treatment B,TRT02,Treatment B,2,Treatment B,2,2025-04-23,2025-06-16,2025-04-23,2025-06-16,N,Y,Y,Y,2025-04-23,Y
CLIN-2025-042,CLIN-2025-042-SITE05-0500,500,SITE05,67,YEARS,>=65,2,F,WHITE,NOT HISPANIC OR LATINO,GBR,Treatment A,TRT01,Treatment A,TRT01,Treatment A,1,Treatment A,1,2025-06-08,2025-08-12,2025-06-08,2025-08-12,Y,Y,Y,Y,2025-06-08,Y
CLIN-2025-042,CLIN-2025-042-SITE04-0501,0501,SITE04,48,YEARS,<65,1,M,ASIAN,HISPANIC OR LATINO,CAN,Treatment B,TRT02,Treatment A,PBO,Placebo,1,Treatment B,3,2025-05-22,2025-07-21,2025-05-10,2025-07-27,Y,Y,Y,Y,2025-05-09,Y
CLIN-2025-042,CLIN-2025-042-SITE02-0502,0502,SITE02,61,YEARS,<65,1,F,ASIAN,NOT HISPANIC OR LATINO,USA,Treatment A,TRT01,Placebo,TRT02,Placebo,1,Treatment B,3,2025-05-21,2025-07-04,2025-05-13,2025-07-07,Y,Y,Y,Y,2025-05-19,Y
CLIN-2025-042,CLIN-2025-042-SITE01-0503,0503,SITE01,56,YEARS,<65,1,M,OTHER,HISPANIC OR LATINO,MEX,Treatment A,TRT01,Treatment B,PBO,Placebo,1,Treatment A,1,2025-05-02,2025-07-02,2025-05-28,2025-07-13,Y,Y,Y,Y,2025-05-23,Y
