STUDYID,DOMAIN,USUBJID,AESEQ,AETERM,AEDECOD,AEBODSYS,AESEV,AESER,AEACN,AEREL,AEOUT,AESTDTC,AEENDTC
CLIN-2025-042,AE,CLIN-2025-042-SITE01-0001,1,Diarrhea,Diarrhea,Gastrointestinal disorders,MODERATE,N,TREATMENT INTERRUPTED,VERY LIKELY,RECOVERED,2025-05-15,2025-05-25
CLIN-2025-042,AE,CLIN-2025-042-SITE01-0001,2,Fever,Fever,General disorders and administration site conditions,MODERATE,N,NONE,PROBABLE,RECOVERED,2025-05-24,2025-05-26
CLIN-2025-042,AE,CLIN-2025-042-SITE01-0001,3,Nausea,Nausea,Gastrointestinal disorders,MILD,N,NONE,PROBABLE,RECOVERING,2025-04-29,
CLIN-2025-042,AE,CLIN-2025-042-SITE01-0001,4,Vomiting,Vomiting,Gastrointestinal disorders,MILD,N,DOSE INCREASED,PROBABLE,RECOVERING,2025-04-19,2025-05-04
CLIN-2025-042,AE,CLIN-2025-042-SITE01-0001,5,Abdominal pain,Abdominal pain,Gastrointestinal disorders,MILD,N,TREATMENT WITHDRAWN,UNLIKELY,RECOVERED,2025-05-24,2025-06-07
CLIN-2025-042,AE,CLIN-2025-042-SITE02-0002,6,Headache,Headache,Nervous system disorders,MODERATE,N,DOSE INCREASED,POSSIBLE,RECOVERING,2025-06-08,2025-06-13
CLIN-2025-042,AE,CLIN-2025-042-SITE02-0002,7,Dizziness,Dizziness,Nervous system disorders,MODERATE,N,TREATMENT INTERRUPTED,POSSIBLE,RECOVERED,2025-05-15,2025-05-22
CLIN-2025-042,AE,CLIN-2025-042-SITE02-0002,8,Muscle pain,Muscle pain,Musculoskeletal and connective tissue disorders,MODERATE,N,TREATMENT INTERRUPTED,PROBABLE,RECOVERED,2025-05-26,2025-06-03
CLIN-2025-042,AE,CLIN-2025-042-SITE02-0002,9,Muscle pain,Muscle pain,Musculoskeletal and connective tissue disorders,MODERATE,Y,DOSE INCREASED,POSSIBLE,RECOVERED,2025-05-09,2025-05-17
CLIN-2025-042,AE,CLIN-2025-042-SITE02-0002,10,Back pain,Back pain,Musculoskeletal and connective tissue disorders,MILD,N,NONE,POSSIBLE,RECOVERED,2025-05-14,
CLIN-2025-042,AE,CLIN-2025-042-SITE02-0002,11,Constipation,Constipation,Gastrointestinal disorders,MILD,Y,DOSE INCREASED,PROBABLE,UNKNOWN,2025-04-25,2025-05-11
CLIN-2025-042,AE,CLIN-2025-042-SITE02-0002,12,Fatigue,Fatigue,General disorders and administration site conditions,MILD,N,DOSE REDUCED,POSSIBLE,RECOVERED,2025-05-14,2025-05-20
CLIN-2025-042,AE,CLIN-2025-042-SITE02-0002,13,Constipation,Constipation,Gastrointestinal disorders,MODERATE,N,TREATMENT INTERRUPTED,UNLIKELY,RECOVERED,2025-05-23,2025-06-05
CLIN-2025-042,AE,CLIN-2025-042-SITE03-0003,14,Pruritus,Pruritus,Skin and subcutaneous tissue disorders,MODERATE,N,TREATMENT INTERRUPTED,POSSIBLE,RECOVERED,2025-03-06,
CLIN-2025-042,AE,CLIN-2025-042-SITE03-0003,15,Tachycardia,Tachycardia,Cardiac disorders,MILD,N,DOSE INCREASED,POSSIBLE,RECOVERED,2025-03-01,2025-03-20
CLIN-2025-042,AE,CLIN-2025-042-SITE03-0003,16,Cough,Cough,"Respiratory, thoracic and mediastinal disorders",SEVERE,N,DOSE INCREASED,PROBABLE,RECOVERING,2025-04-01,2025-04-12
CLIN-2025-042,AE,CLIN-2025-042-SITE03-0003,17,Tachycardia,Tachycardia,Cardiac disorders,MILD,N,DOSE REDUCED,UNLIKELY,UNKNOWN,2025-02-27,2025-03-14
CLIN-2025-042,AE,CLIN-2025-042-SITE04-0004,18,Diarrhea,Diarrhea,Gastrointestinal disorders,MILD,N,TREATMENT WITHDRAWN,UNLIKELY,RECOVERED,2025-04-29,2025-05-03
CLIN-2025-042,AE,CLIN-2025-042-SITE04-0004,19,Pruritus,Pruritus,Skin and subcutaneous tissue disorders,MODERATE,N,DOSE INCREASED,POSSIBLE,RECOVERED,2025-04-15,2025-05-03
CLIN-2025-042,AE,CLIN-2025-042-SITE04-0004,20,Pruritus,Pruritus,Skin and subcutaneous tissue disorders,MILD,N,TREATMENT WITHDRAWN,POSSIBLE,RECOVERED,2025-04-30,2025-05-17
CLIN-2025-042,AE,CLIN-2025-042-SITE05-0005,21,Back pain,Back pain,Musculoskeletal and connective tissue disorders,MILD,N,DOSE REDUCED,PROBABLE,RECOVERED,2025-03-21,2025-03-27
CLIN-2025-042,AE,CLIN-2025-042-SITE01-0006,22,Dyspnea,Dyspnea,"Respiratory, thoracic and mediastinal disorders",MILD,N,TREATMENT WITHDRAWN,UNLIKELY,NOT RECOVERED,2025-07-06,2025-07-18
CLIN-2025-042,AE,CLIN-2025-042-SITE01-0006,23,Nausea,Nausea,Gastrointestinal disorders,MODERATE,N,DOSE REDUCED,POSSIBLE,RECOVERED,2025-05-30,2025-06-02
CLIN-2025-042,AE,CLIN-2025-042-SITE01-0006,24,Constipation,Constipation,Gastrointestinal disorders,MODERATE,N,DOSE INCREASED,PROBABLE,RECOVERED,2025-06-19,2025-07-05
CLIN-2025-042,AE,CLIN-2025-042-SITE02-0007,25,Cough,Cough,"Respiratory, thoracic and mediastinal disorders",MILD,N,DOSE INCREASED,PROBABLE,NOT RECOVERED,2025-06-13,2025-06-20
CLIN-2025-042,AE,CLIN-2025-042-SITE02-0007,26,Headache,Headache,Nervous system disorders,SEVERE,N,TREATMENT INTERRUPTED,UNLIKELY,RECOVERED,2025-05-31,2025-06-05
CLIN-2025-042,AE,CLIN-2025-042-SITE02-0007,27,Tremor,Tremor,Nervous system disorders,MILD,N,DOSE INCREASED,POSSIBLE,NOT RECOVERED,2025-06-07,2025-06-08
CLIN-2025-042,AE,CLIN-2025-042-SITE02-0007,28,Pruritus,Pruritus,Skin and subcutaneous tissue disorders,MODERATE,Y,TREATMENT INTERRUPTED,UNLIKELY,RECOVERED,2025-05-20,
CLIN-2025-042,AE,CLIN-2025-042-SITE02-0007,29,Abdominal pain,Abdominal pain,Gastrointestinal disorders,MILD,N,DOSE INCREASED,UNLIKELY,RECOVERED,2025-06-12,2025-06-16
CLIN-2025-042,AE,CLIN-2025-042-SITE03-0008,30,Cough,Cough,"Respiratory, thoracic and mediastinal disorders",MILD,N,TREATMENT INTERRUPTED,UNLIKELY,RECOVERED,2025-06-28,2025-07-03
CLIN-2025-042,AE,CLIN-2025-042-SITE03-0008,31,Rash,Rash,Skin and subcutaneous tissue disorders,MILD,N,DOSE INCREASED,PROBABLE,RECOVERED,2025-07-09,2025-07-24
CLIN-2025-042,AE,CLIN-2025-042-SITE03-0008,32,Fatigue,Fatigue,General disorders and administration site conditions,MODERATE,N,DOSE INCREASED,UNLIKELY,RECOVERED,2025-06-16,2025-07-05
CLIN-2025-042,AE,CLIN-2025-042-SITE03-0008,33,Fatigue,Fatigue,General disorders and administration site conditions,MILD,N,TREATMENT INTERRUPTED,UNLIKELY,RECOVERED,2025-06-05,2025-06-21
CLIN-2025-042,AE,CLIN-2025-042-SITE03-0008,34,Back pain,Back pain,Musculoskeletal and connective tissue disorders,MODERATE,N,TREATMENT WITHDRAWN,UNLIKELY,NOT RECOVERED,2025-05-31,2025-06-02
CLIN-2025-042,AE,CLIN-2025-042-SITE03-0008,35,Insomnia,Insomnia,Nervous system disorders,MILD,N,NONE,POSSIBLE,RECOVERED,2025-06-19,2025-07-06
CLIN-2025-042,AE,CLIN-2025-042-SITE04-0009,36,Dyspnea,Dyspnea,"Respiratory, thoracic and mediastinal disorders",MODERATE,N,TREATMENT INTERRUPTED,POSSIBLE,UNKNOWN,2025-02-23,2025-03-06
CLIN-2025-042,AE,CLIN-2025-042-SITE01-0011,37,Tachycardia,Tachycardia,Cardiac disorders,MODERATE,N,TREATMENT INTERRUPTED,POSSIBLE,RECOVERED,2025-05-09,
CLIN-2025-042,AE,CLIN-2025-042-SITE01-0011,38,Cough,Cough,"Respiratory, thoracic and mediastinal disorders",SEVERE,N,TREATMENT WITHDRAWN,POSSIBLE,RECOVERED,2025-04-15,2025-04-30
CLIN-2025-042,AE,CLIN-2025-042-SITE02-0012,39,Fever,Fever,General disorders and administration site conditions,MILD,N,NONE,PROBABLE,RECOVERING,2025-03-08,2025-03-22
CLIN-2025-042,AE,CLIN-2025-042-SITE02-0012,40,Muscle pain,Muscle pain,Musculoskeletal and connective tissue disorders,MILD,N,DOSE INCREASED,PROBABLE,RECOVERED,2025-04-10,2025-04-29
CLIN-2025-042,AE,CLIN-2025-042-SITE03-0013,41,Dyspnea,Dyspnea,"Respiratory, thoracic and mediastinal disorders",MODERATE,N,DOSE INCREASED,POSSIBLE,RECOVERED,2025-04-23,2025-05-09
CLIN-2025-042,AE,CLIN-2025-042-SITE03-0013,42,Cough,Cough,"Respiratory, thoracic and mediastinal disorders",MILD,N,TREATMENT INTERRUPTED,PROBABLE,RECOVERED,2025-04-21,2025-04-30
CLIN-2025-042,AE,CLIN-2025-042-SITE03-0013,43,Headache,Headache,Nervous system disorders,MILD,N,DOSE INCREASED,PROBABLE,RECOVERED,2025-03-23,
CLIN-2025-042,AE,CLIN-2025-042-SITE03-0013,44,Hypertension,Hypertension,Vascular disorders,MILD,N,DOSE INCREASED,POSSIBLE,RECOVERED,2025-04-09,2025-04-17
CLIN-2025-042,AE,CLIN-2025-042-SITE04-0014,45,Diarrhea,Diarrhea,Gastrointestinal disorders,MODERATE,N,TREATMENT WITHDRAWN,PROBABLE,RECOVERED,2025-02-11,2025-02-16
CLIN-2025-042,AE,CLIN-2025-042-SITE04-0014,46,Dyspnea,Dyspnea,"Respiratory, thoracic and mediastinal disorders",MILD,N,DOSE REDUCED,POSSIBLE,NOT RECOVERED,2025-02-12,2025-02-18
CLIN-2025-042,AE,CLIN-2025-042-SITE01-0016,47,Tachycardia,Tachycardia,Cardiac disorders,MODERATE,N,TREATMENT WITHDRAWN,POSSIBLE,RECOVERED,2025-07-02,2025-07-19
CLIN-2025-042,AE,CLIN-2025-042-SITE01-0016,48,Pruritus,Pruritus,Skin and subcutaneous tissue disorders,MODERATE,N,DOSE INCREASED,PROBABLE,RECOVERED,2025-07-18,2025-07-27
CLIN-2025-042,AE,CLIN-2025-042-SITE01-0016,49,Headache,Headache,Nervous system disorders,MILD,N,TREATMENT INTERRUPTED,PROBABLE,RECOVERED,2025-07-26,2025-08-08
CLIN-2025-042,AE,CLIN-2025-042-SITE02-0017,50,Vomiting,Vomiting,Gastrointestinal disorders,MILD,N,TREATMENT INTERRUPTED,VERY LIKELY,RECOVERED,2025-05-11,2025-05-26
CLIN-2025-042,AE,CLIN-2025-042-SITE02-0017,51,Dizziness,Dizziness,Nervous system disorders,MODERATE,N,TREATMENT INTERRUPTED,POSSIBLE,RECOVERED,2025-05-20,2025-05-25
CLIN-2025-042,AE,CLIN-2025-042-SITE02-0017,52,Rash,Rash,Skin and subcutaneous tissue disorders,MODERATE,N,TREATMENT WITHDRAWN,VERY LIKELY,UNKNOWN,2025-04-30,2025-05-09
CLIN-2025-042,AE,CLIN-2025-042-SITE03-0018,53,Muscle pain,Muscle pain,Musculoskeletal and connective tissue disorders,MILD,Y,TREATMENT WITHDRAWN,UNLIKELY,NOT RECOVERED,2025-04-08,2025-04-20
CLIN-2025-042,AE,CLIN-2025-042-SITE04-0019,54,Vomiting,Vomiting,Gastrointestinal disorders,MODERATE,N,TREATMENT WITHDRAWN,VERY LIKELY,RECOVERED,2025-01-19,2025-02-06
CLIN-2025-042,AE,CLIN-2025-042-SITE04-0019,55,Abdominal pain,Abdominal pain,Gastrointestinal disorders,MILD,N,DOSE REDUCED,POSSIBLE,RECOVERED,2025-02-03,2025-02-06
CLIN-2025-042,AE,CLIN-2025-042-SITE05-0020,56,Tachycardia,Tachycardia,Cardiac disorders,SEVERE,N,NONE,POSSIBLE,RECOVERING,2025-04-30,
CLIN-2025-042,AE,CLIN-2025-042-SITE05-0020,57,Muscle pain,Muscle pain,Musculoskeletal and connective tissue disorders,MODERATE,N,DOSE INCREASED,PROBABLE,NOT RECOVERED,2025-05-02,2025-05-21
CLIN-2025-042,AE,CLIN-2025-042-SITE05-0020,58,Constipation,Constipation,Gastrointestinal disorders,MILD,N,DOSE REDUCED,POSSIBLE,NOT RECOVERED,2025-04-01,
CLIN-2025-042,AE,CLIN-2025-042-SITE01-0021,59,Diarrhea,Diarrhea,Gastrointestinal disorders,MILD,Y,DOSE INCREASED,POSSIBLE,RECOVERED,2025-03-23,2025-03-26
CLIN-2025-042,AE,CLIN-2025-042-SITE01-0021,60,Pruritus,Pruritus,Skin and subcutaneous tissue disorders,MILD,N,TREATMENT WITHDRAWN,PROBABLE,RECOVERED,2025-04-01,
CLIN-2025-042,AE,CLIN-2025-042-SITE01-0021,61,Tachycardia,Tachycardia,Cardiac disorders,MILD,N,NONE,VERY LIKELY,RECOVERED,2025-03-14,2025-03-18
CLIN-2025-042,AE,CLIN-2025-042-SITE02-0022,62,Vomiting,Vomiting,Gastrointestinal disorders,MILD,N,DOSE REDUCED,POSSIBLE,RECOVERED,2025-04-21,2025-04-30
CLIN-2025-042,AE,CLIN-2025-042-SITE02-0022,63,Dyspnea,Dyspnea,"Respiratory, thoracic and mediastinal disorders",MODERATE,N,DOSE INCREASED,PROBABLE,RECOVERED,2025-04-12,
CLIN-2025-042,AE,CLIN-2025-042-SITE02-0022,64,Cough,Cough,"Respiratory, thoracic and mediastinal disorders",MILD,N,TREATMENT INTERRUPTED,UNLIKELY,RECOVERED,2025-04-08,
CLIN-2025-042,AE,CLIN-2025-042-SITE02-0022,65,Fever,Fever,General disorders and administration site conditions,MODERATE,N,TREATMENT INTERRUPTED,POSSIBLE,RECOVERED,2025-03-23,2025-04-05
CLIN-2025-042,AE,CLIN-2025-042-SITE02-0022,66,Insomnia,Insomnia,Nervous system disorders,MODERATE,N,TREATMENT INTERRUPTED,POSSIBLE,UNKNOWN,2025-04-11,2025-04-23
CLIN-2025-042,AE,CLIN-2025-042-SITE03-0023,67,Vomiting,Vomiting,Gastrointestinal disorders,MILD,N,NONE,UNLIKELY,UNKNOWN,2025-06-15,2025-07-02
CLIN-2025-042,AE,CLIN-2025-042-SITE03-0023,68,Rash,Rash,Skin and subcutaneous tissue disorders,MODERATE,N,TREATMENT INTERRUPTED,POSSIBLE,RECOVERING,2025-05-31,2025-06-16
CLIN-2025-042,AE,CLIN-2025-042-SITE04-0024,69,Nausea,Nausea,Gastrointestinal disorders,MILD,N,NONE,VERY LIKELY,RECOVERED,2025-04-25,
CLIN-2025-042,AE,CLIN-2025-042-SITE04-0024,70,Cough,Cough,"Respiratory, thoracic and mediastinal disorders",MILD,N,DOSE REDUCED,POSSIBLE,RECOVERED,2025-06-01,
CLIN-2025-042,AE,CLIN-2025-042-SITE04-0024,71,Nausea,Nausea,Gastrointestinal disorders,MILD,Y,DOSE REDUCED,PROBABLE,RECOVERED,2025-05-20,2025-05-24
CLIN-2025-042,AE,CLIN-2025-042-SITE05-0025,72,Tremor,Tremor,Nervous system disorders,MODERATE,N,DOSE REDUCED,UNLIKELY,RECOVERED,2025-08-07,2025-08-20
CLIN-2025-042,AE,CLIN-2025-042-SITE05-0025,73,Hypertension,Hypertension,Vascular disorders,MODERATE,N,TREATMENT WITHDRAWN,POSSIBLE,NOT RECOVERED,2025-07-10,
CLIN-2025-042,AE,CLIN-2025-042-SITE05-0025,74,Tachycardia,Tachycardia,Cardiac disorders,MODERATE,N,DOSE INCREASED,PROBABLE,RECOVERED,2025-07-27,2025-08-02
CLIN-2025-042,AE,CLIN-2025-042-SITE01-0026,75,Muscle pain,Muscle pain,Musculoskeletal and connective tissue disorders,MILD,N,DOSE INCREASED,UNLIKELY,RECOVERED,2025-03-03,
CLIN-2025-042,AE,CLIN-2025-042-SITE01-0026,76,Diarrhea,Diarrhea,Gastrointestinal disorders,MILD,N,DOSE INCREASED,POSSIBLE,RECOVERED,2025-03-02,2025-03-13
CLIN-2025-042,AE,CLIN-2025-042-SITE01-0026,77,Tachycardia,Tachycardia,Cardiac disorders,MILD,N,DOSE REDUCED,POSSIBLE,RECOVERED,2025-04-04,2025-04-19
CLIN-2025-042,AE,CLIN-2025-042-SITE01-0026,78,Muscle pain,Muscle pain,Musculoskeletal and connective tissue disorders,MODERATE,N,NONE,UNLIKELY,NOT RECOVERED,2025-03-16,2025-03-22
CLIN-2025-042,AE,CLIN-2025-042-SITE02-0027,79,Cough,Cough,"Respiratory, thoracic and mediastinal disorders",MILD,N,DOSE REDUCED,POSSIBLE,RECOVERING,2025-08-05,
CLIN-2025-042,AE,CLIN-2025-042-SITE02-0027,80,Pruritus,Pruritus,Skin and subcutaneous tissue disorders,MODERATE,N,TREATMENT INTERRUPTED,PROBABLE,RECOVERED,2025-07-09,
CLIN-2025-042,AE,CLIN-2025-042-SITE03-0028,81,Dyspnea,Dyspnea,"Respiratory, thoracic and mediastinal disorders",MODERATE,N,NONE,PROBABLE,RECOVERED,2025-04-09,2025-04-15
CLIN-2025-042,AE,CLIN-2025-042-SITE03-0028,82,Tachycardia,Tachycardia,Cardiac disorders,SEVERE,N,DOSE REDUCED,POSSIBLE,RECOVERED,2025-03-21,
CLIN-2025-042,AE,CLIN-2025-042-SITE03-0028,83,Headache,Headache,Nervous system disorders,MODERATE,N,DOSE INCREASED,VERY LIKELY,RECOVERED,2025-03-18,2025-03-19
CLIN-2025-042,AE,CLIN-2025-042-SITE03-0028,84,Cough,Cough,"Respiratory, thoracic and mediastinal disorders",MODERATE,N,TREATMENT WITHDRAWN,POSSIBLE,RECOVERED,2025-03-26,2025-03-28
CLIN-2025-042,AE,CLIN-2025-042-SITE03-0028,85,Headache,Headache,Nervous system disorders,MILD,N,DOSE REDUCED,PROBABLE,RECOVERING,2025-04-13,2025-04-14
CLIN-2025-042,AE,CLIN-2025-042-SITE04-0029,86,Headache,Headache,Nervous system disorders,SEVERE,N,DOSE INCREASED,PROBABLE,RECOVERED,2025-06-20,2025-07-05
CLIN-2025-042,AE,CLIN-2025-042-SITE04-0029,87,Dyspnea,Dyspnea,"Respiratory, thoracic and mediastinal disorders",MILD,N,TREATMENT INTERRUPTED,POSSIBLE,RECOVERED,2025-07-26,2025-07-27
CLIN-2025-042,AE,CLIN-2025-042-SITE04-0029,88,Pruritus,Pruritus,Skin and subcutaneous tissue disorders,MODERATE,N,TREATMENT WITHDRAWN,POSSIBLE,RECOVERED,2025-06-20,2025-06-21
CLIN-2025-042,AE,CLIN-2025-042-SITE04-0029,89,Dyspnea,Dyspnea,"Respiratory, thoracic and mediastinal disorders",SEVERE,Y,NONE,POSSIBLE,RECOVERING,2025-07-04,2025-07-21
CLIN-2025-042,AE,CLIN-2025-042-SITE04-0029,90,Hypertension,Hypertension,Vascular disorders,MILD,N,TREATMENT WITHDRAWN,POSSIBLE,NOT RECOVERED,2025-07-28,2025-08-10
CLIN-2025-042,AE,CLIN-2025-042-SITE04-0029,91,Dyspnea,Dyspnea,"Respiratory, thoracic and mediastinal disorders",MODERATE,N,TREATMENT WITHDRAWN,POSSIBLE,RECOVERED,2025-06-28,2025-07-02
CLIN-2025-042,AE,CLIN-2025-042-SITE04-0029,92,Hypertension,Hypertension,Vascular disorders,MILD,N,TREATMENT INTERRUPTED,UNLIKELY,RECOVERED,2025-06-30,2025-07-05
CLIN-2025-042,AE,CLIN-2025-042-SITE05-0030,93,Muscle pain,Muscle pain,Musculoskeletal and connective tissue disorders,MODERATE,N,DOSE INCREASED,POSSIBLE,NOT RECOVERED,2025-07-25,2025-07-26
CLIN-2025-042,AE,CLIN-2025-042-SITE05-0030,94,Abdominal pain,Abdominal pain,Gastrointestinal disorders,MILD,N,NONE,PROBABLE,RECOVERED,2025-08-15,2025-08-22
CLIN-2025-042,AE,CLIN-2025-042-SITE01-0031,95,Headache,Headache,Nervous system disorders,MILD,Y,DOSE REDUCED,POSSIBLE,RECOVERED,2025-08-04,2025-08-20
CLIN-2025-042,AE,CLIN-2025-042-SITE01-0031,96,Vomiting,Vomiting,Gastrointestinal disorders,MILD,N,NONE,PROBABLE,RECOVERED,2025-07-27,2025-07-31
CLIN-2025-042,AE,CLIN-2025-042-SITE02-0032,97,Nausea,Nausea,Gastrointestinal disorders,MILD,N,TREATMENT INTERRUPTED,UNLIKELY,RECOVERED,2025-04-01,2025-04-14
CLIN-2025-042,AE,CLIN-2025-042-SITE02-0032,98,Dyspnea,Dyspnea,"Respiratory, thoracic and mediastinal disorders",MILD,N,DOSE INCREASED,VERY LIKELY,RECOVERED,2025-04-05,2025-04-09
CLIN-2025-042,AE,CLIN-2025-042-SITE02-0032,99,Muscle pain,Muscle pain,Musculoskeletal and connective tissue disorders,MILD,N,TREATMENT WITHDRAWN,VERY LIKELY,RECOVERED,2025-03-04,2025-03-23
CLIN-2025-042,AE,CLIN-2025-042-SITE02-0032,100,Constipation,Constipation,Gastrointestinal disorders,MILD,N,TREATMENT INTERRUPTED,VERY LIKELY,RECOVERED,2025-02-23,2025-02-28
CLIN-2025-042,AE,CLIN-2025-042-SITE02-0032,101,Pruritus,Pruritus,Skin and subcutaneous tissue disorders,MILD,N,TREATMENT WITHDRAWN,POSSIBLE,RECOVERED,2025-03-03,2025-03-20
CLIN-2025-042,AE,CLIN-2025-042-SITE02-0032,102,Constipation,Constipation,Gastrointestinal disorders,MODERATE,N,DOSE REDUCED,PROBABLE,RECOVERED,2025-03-09,
CLIN-2025-042,AE,CLIN-2025-042-SITE03-0033,103,Dyspnea,Dyspnea,"Respiratory, thoracic and mediastinal disorders",MODERATE,N,NONE,POSSIBLE,RECOVERED,2025-06-25,2025-07-05
CLIN-2025-042,AE,CLIN-2025-042-SITE03-0033,104,Dizziness,Dizziness,Nervous system disorders,MODERATE,N,NONE,PROBABLE,RECOVERED,2025-06-26,2025-07-07
CLIN-2025-042,AE,CLIN-2025-042-SITE03-0033,105,Abdominal pain,Abdominal pain,Gastrointestinal disorders,MILD,N,TREATMENT INTERRUPTED,POSSIBLE,RECOVERED,2025-06-17,
CLIN-2025-042,AE,CLIN-2025-042-SITE03-0033,106,Constipation,Constipation,Gastrointestinal disorders,MILD,N,DOSE REDUCED,POSSIBLE,RECOVERED,2025-07-14,2025-07-21
CLIN-2025-042,AE,CLIN-2025-042-SITE04-0034,107,Tremor,Tremor,Nervous system disorders,MILD,N,DOSE INCREASED,UNLIKELY,UNKNOWN,2025-03-12,2025-03-19
CLIN-2025-042,AE,CLIN-2025-042-SITE04-0034,108,Headache,Headache,Nervous system disorders,MILD,N,TREATMENT INTERRUPTED,POSSIBLE,RECOVERED,2025-03-24,2025-04-03
CLIN-2025-042,AE,CLIN-2025-042-SITE04-0034,109,Tremor,Tremor,Nervous system disorders,MILD,N,NONE,UNLIKELY,RECOVERING,2025-04-01,2025-04-08
CLIN-2025-042,AE,CLIN-2025-042-SITE04-0034,110,Constipation,Constipation,Gastrointestinal disorders,MODERATE,N,NONE,POSSIBLE,RECOVERED,2025-04-08,
CLIN-2025-042,AE,CLIN-2025-042-SITE04-0034,111,Hypertension,Hypertension,Vascular disorders,MILD,N,TREATMENT INTERRUPTED,POSSIBLE,RECOVERED,2025-04-21,
CLIN-2025-042,AE,CLIN-2025-042-SITE04-0034,112,Nausea,Nausea,Gastrointestinal disorders,MODERATE,N,NONE,POSSIBLE,RECOVERED,2025-04-01,2025-04-20
CLIN-2025-042,AE,CLIN-2025-042-SITE05-0035,113,Abdominal pain,Abdominal pain,Gastrointestinal disorders,MILD,N,DOSE REDUCED,VERY LIKELY,RECOVERED,2025-04-09,2025-04-22
CLIN-2025-042,AE,CLIN-2025-042-SITE05-0035,114,Tachycardia,Tachycardia,Cardiac disorders,MILD,N,DOSE REDUCED,POSSIBLE,RECOVERED,2025-04-14,2025-05-02
CLIN-2025-042,AE,CLIN-2025-042-SITE01-0036,115,Rash,Rash,Skin and subcutaneous tissue disorders,SEVERE,N,TREATMENT INTERRUPTED,PROBABLE,RECOVERED,2025-05-18,2025-05-29
CLIN-2025-042,AE,CLIN-2025-042-SITE01-0036,116,Tremor,Tremor,Nervous system disorders,MILD,N,DOSE REDUCED,POSSIBLE,RECOVERED,2025-05-24,2025-05-27
CLIN-2025-042,AE,CLIN-2025-042-SITE02-0037,117,Headache,Headache,Nervous system disorders,MILD,N,TREATMENT WITHDRAWN,VERY LIKELY,RECOVERED,2025-04-23,2025-05-10
CLIN-2025-042,AE,CLIN-2025-042-SITE02-0037,118,Vomiting,Vomiting,Gastrointestinal disorders,MILD,N,TREATMENT WITHDRAWN,VERY LIKELY,RECOVERING,2025-05-29,
CLIN-2025-042,AE,CLIN-2025-042-SITE03-0038,119,Rash,Rash,Skin and subcutaneous tissue disorders,MILD,N,TREATMENT WITHDRAWN,VERY LIKELY,RECOVERED,2025-03-21,
CLIN-2025-042,AE,CLIN-2025-042-SITE04-0039,120,Tremor,Tremor,Nervous system disorders,MILD,N,NONE,PROBABLE,NOT RECOVERED,2025-03-25,2025-04-09
CLIN-2025-042,AE,CLIN-2025-042-SITE04-0039,121,Diarrhea,Diarrhea,Gastrointestinal disorders,MILD,N,DOSE INCREASED,POSSIBLE,FATAL,2025-03-02,
CLIN-2025-042,AE,CLIN-2025-042-SITE04-0039,122,Cough,Cough,"Respiratory, thoracic and mediastinal disorders",MILD,N,DOSE REDUCED,PROBABLE,RECOVERED,2025-03-27,
CLIN-2025-042,AE,CLIN-2025-042-SITE04-0039,123,Hypertension,Hypertension,Vascular disorders,SEVERE,N,DOSE REDUCED,PROBABLE,RECOVERED,2025-03-30,2025-04-12
CLIN-2025-042,AE,CLIN-2025-042-SITE04-0039,124,Hypertension,Hypertension,Vascular disorders,MILD,N,TREATMENT INTERRUPTED,POSSIBLE,RECOVERED,2025-03-02,2025-03-19
CLIN-2025-042,AE,CLIN-2025-042-SITE05-0040,125,Fatigue,Fatigue,General disorders and administration site conditions,MODERATE,N,NONE,POSSIBLE,RECOVERING,2025-04-13,2025-04-22
CLIN-2025-042,AE,CLIN-2025-042-SITE01-0041,126,Fever,Fever,General disorders and administration site conditions,MODERATE,N,DOSE INCREASED,POSSIBLE,NOT RECOVERED,2025-07-16,2025-08-01
CLIN-2025-042,AE,CLIN-2025-042-SITE01-0041,127,Fever,Fever,General disorders and administration site conditions,MODERATE,N,TREATMENT INTERRUPTED,POSSIBLE,RECOVERING,2025-06-28,2025-07-16
CLIN-2025-042,AE,CLIN-2025-042-SITE01-0041,128,Hypertension,Hypertension,Vascular disorders,MILD,Y,TREATMENT INTERRUPTED,VERY LIKELY,RECOVERED,2025-08-03,
CLIN-2025-042,AE,CLIN-2025-042-SITE02-0042,129,Cough,Cough,"Respiratory, thoracic and mediastinal disorders",MILD,N,TREATMENT WITHDRAWN,VERY LIKELY,RECOVERED,2025-03-24,2025-03-28
CLIN-2025-042,AE,CLIN-2025-042-SITE03-0043,130,Abdominal pain,Abdominal pain,Gastrointestinal disorders,MILD,N,DOSE REDUCED,POSSIBLE,RECOVERED,2025-04-14,2025-04-24
CLIN-2025-042,AE,CLIN-2025-042-SITE03-0043,131,Tremor,Tremor,Nervous system disorders,MILD,N,TREATMENT WITHDRAWN,UNLIKELY,RECOVERING,2025-05-18,2025-06-04
CLIN-2025-042,AE,CLIN-2025-042-SITE03-0043,132,Insomnia,Insomnia,Nervous system disorders,MODERATE,N,TREATMENT INTERRUPTED,PROBABLE,RECOVERED,2025-04-27,2025-05-01
CLIN-2025-042,AE,CLIN-2025-042-SITE04-0044,133,Pruritus,Pruritus,Skin and subcutaneous tissue disorders,SEVERE,N,NONE,VERY LIKELY,RECOVERED,2025-06-20,2025-07-06
CLIN-2025-042,AE,CLIN-2025-042-SITE04-0044,134,Muscle pain,Muscle pain,Musculoskeletal and connective tissue disorders,MILD,N,NONE,VERY LIKELY,RECOVERED,2025-05-25,2025-05-31
CLIN-2025-042,AE,CLIN-2025-042-SITE05-0045,135,Back pain,Back pain,Musculoskeletal and connective tissue disorders,MILD,Y,TREATMENT INTERRUPTED,UNLIKELY,RECOVERED,2025-05-31,
CLIN-2025-042,AE,CLIN-2025-042-SITE05-0045,136,Diarrhea,Diarrhea,Gastrointestinal disorders,MILD,N,TREATMENT WITHDRAWN,PROBABLE,NOT RECOVERED,2025-05-06,2025-05-16
CLIN-2025-042,AE,CLIN-2025-042-SITE05-0045,137,Tremor,Tremor,Nervous system disorders,MODERATE,Y,DOSE REDUCED,POSSIBLE,RECOVERED,2025-05-13,2025-05-20
CLIN-2025-042,AE,CLIN-2025-042-SITE05-0045,138,Hypertension,Hypertension,Vascular disorders,MILD,N,TREATMENT WITHDRAWN,UNLIKELY,RECOVERED,2025-04-30,2025-05-04
CLIN-2025-042,AE,CLIN-2025-042-SITE05-0045,139,Insomnia,Insomnia,Nervous system disorders,MILD,N,DOSE REDUCED,UNLIKELY,RECOVERED,2025-04-27,2025-05-08
CLIN-2025-042,AE,CLIN-2025-042-SITE05-0045,140,Fatigue,Fatigue,General disorders and administration site conditions,MILD,N,TREATMENT INTERRUPTED,POSSIBLE,RECOVERED,2025-05-16,2025-05-19
CLIN-2025-042,AE,CLIN-2025-042-SITE01-0046,141,Dyspnea,Dyspnea,"Respiratory, thoracic and mediastinal disorders",MILD,N,DOSE INCREASED,UNLIKELY,RECOVERED,2025-05-31,2025-06-16
CLIN-2025-042,AE,CLIN-2025-042-SITE01-0046,142,Muscle pain,Muscle pain,Musculoskeletal and connective tissue disorders,MILD,N,NONE,POSSIBLE,NOT RECOVERED,2025-05-18,2025-05-20
CLIN-2025-042,AE,CLIN-2025-042-SITE01-0046,143,Vomiting,Vomiting,Gastrointestinal disorders,MILD,N,NONE,VERY LIKELY,RECOVERED,2025-05-22,
CLIN-2025-042,AE,CLIN-2025-042-SITE02-0047,144,Abdominal pain,Abdominal pain,Gastrointestinal disorders,MILD,N,TREATMENT INTERRUPTED,POSSIBLE,RECOVERED,2025-05-25,
CLIN-2025-042,AE,CLIN-2025-042-SITE02-0047,145,Headache,Headache,Nervous system disorders,MILD,N,TREATMENT WITHDRAWN,PROBABLE,RECOVERED,2025-05-30,2025-06-06
CLIN-2025-042,AE,CLIN-2025-042-SITE02-0047,146,Hypertension,Hypertension,Vascular disorders,MILD,N,DOSE REDUCED,PROBABLE,RECOVERED,2025-05-25,2025-06-13
CLIN-2025-042,AE,CLIN-2025-042-SITE02-0047,147,Vomiting,Vomiting,Gastrointestinal disorders,MILD,N,DOSE REDUCED,POSSIBLE,RECOVERED,2025-06-26,2025-07-02
CLIN-2025-042,AE,CLIN-2025-042-SITE02-0047,148,Hypertension,Hypertension,Vascular disorders,MILD,N,DOSE REDUCED,UNLIKELY,RECOVERED,2025-06-29,2025-07-16
CLIN-2025-042,AE,CLIN-2025-042-SITE03-0048,149,Vomiting,Vomiting,Gastrointestinal disorders,MILD,N,TREATMENT WITHDRAWN,PROBABLE,RECOVERED,2025-04-17,2025-04-23
CLIN-2025-042,AE,CLIN-2025-042-SITE03-0048,150,Dizziness,Dizziness,Nervous system disorders,SEVERE,N,NONE,POSSIBLE,RECOVERING,2025-04-17,2025-04-29
CLIN-2025-042,AE,CLIN-2025-042-SITE04-0049,151,Muscle pain,Muscle pain,Musculoskeletal and connective tissue disorders,MILD,N,TREATMENT INTERRUPTED,POSSIBLE,RECOVERED,2025-04-07,2025-04-20
CLIN-2025-042,AE,CLIN-2025-042-SITE05-0050,152,Fatigue,Fatigue,General disorders and administration site conditions,MODERATE,N,TREATMENT WITHDRAWN,PROBABLE,UNKNOWN,2025-03-29,2025-04-11
CLIN-2025-042,AE,CLIN-2025-042-SITE05-0050,153,Abdominal pain,Abdominal pain,Gastrointestinal disorders,SEVERE,N,TREATMENT WITHDRAWN,UNLIKELY,RECOVERED,2025-03-07,2025-03-14
CLIN-2025-042,AE,CLIN-2025-042-SITE05-0050,154,Tremor,Tremor,Nervous system disorders,MODERATE,N,DOSE INCREASED,POSSIBLE,RECOVERED,2025-04-05,
CLIN-2025-042,AE,CLIN-2025-042-SITE05-0050,155,Nausea,Nausea,Gastrointestinal disorders,MILD,N,NONE,POSSIBLE,RECOVERED,2025-03-10,2025-03-24
CLIN-2025-042,AE,CLIN-2025-042-SITE01-0051,156,Constipation,Constipation,Gastrointestinal disorders,MODERATE,N,DOSE REDUCED,POSSIBLE,RECOVERED,2025-04-30,2025-05-05
CLIN-2025-042,AE,CLIN-2025-042-SITE01-0051,157,Tachycardia,Tachycardia,Cardiac disorders,MILD,N,DOSE INCREASED,PROBABLE,RECOVERING,2025-04-24,2025-04-30
CLIN-2025-042,AE,CLIN-2025-042-SITE01-0051,158,Fatigue,Fatigue,General disorders and administration site conditions,MODERATE,N,NONE,POSSIBLE,NOT RECOVERED,2025-04-27,2025-05-04
CLIN-2025-042,AE,CLIN-2025-042-SITE01-0051,159,Back pain,Back pain,Musculoskeletal and connective tissue disorders,MODERATE,Y,DOSE REDUCED,PROBABLE,RECOVERED,2025-04-13,2025-04-28
CLIN-2025-042,AE,CLIN-2025-042-SITE02-0052,160,Cough,Cough,"Respiratory, thoracic and mediastinal disorders",MILD,N,TREATMENT WITHDRAWN,UNLIKELY,RECOVERED,2025-02-18,2025-03-01
CLIN-2025-042,AE,CLIN-2025-042-SITE02-0052,161,Headache,Headache,Nervous system disorders,MODERATE,N,TREATMENT WITHDRAWN,POSSIBLE,RECOVERED,2025-02-25,2025-03-01
CLIN-2025-042,AE,CLIN-2025-042-SITE02-0052,162,Pruritus,Pruritus,Skin and subcutaneous tissue disorders,MODERATE,N,DOSE INCREASED,POSSIBLE,RECOVERED,2025-03-06,2025-03-17
CLIN-2025-042,AE,CLIN-2025-042-SITE02-0052,163,Diarrhea,Diarrhea,Gastrointestinal disorders,MILD,N,DOSE REDUCED,UNLIKELY,RECOVERED,2025-02-07,
CLIN-2025-042,AE,CLIN-2025-042-SITE03-0053,164,Dyspnea,Dyspnea,"Respiratory, thoracic and mediastinal disorders",SEVERE,N,DOSE REDUCED,PROBABLE,RECOVERING,2025-05-25,2025-05-31
CLIN-2025-042,AE,CLIN-2025-042-SITE03-0053,165,Abdominal pain,Abdominal pain,Gastrointestinal disorders,MILD,N,DOSE INCREASED,UNLIKELY,RECOVERED,2025-05-04,2025-05-19
CLIN-2025-042,AE,CLIN-2025-042-SITE03-0053,166,Back pain,Back pain,Musculoskeletal and connective tissue disorders,MILD,Y,DOSE INCREASED,PROBABLE,RECOVERED,2025-04-24,2025-05-08
CLIN-2025-042,AE,CLIN-2025-042-SITE03-0053,167,Pruritus,Pruritus,Skin and subcutaneous tissue disorders,MILD,N,TREATMENT WITHDRAWN,POSSIBLE,RECOVERED,2025-04-16,2025-04-24
CLIN-2025-042,AE,CLIN-2025-042-SITE03-0053,168,Muscle pain,Muscle pain,Musculoskeletal and connective tissue disorders,MODERATE,N,NONE,UNLIKELY,RECOVERING,2025-05-09,2025-05-25
CLIN-2025-042,AE,CLIN-2025-042-SITE04-0054,169,Cough,Cough,"Respiratory, thoracic and mediastinal disorders",MILD,N,TREATMENT WITHDRAWN,POSSIBLE,RECOVERED,2025-08-01,2025-08-14
CLIN-2025-042,AE,CLIN-2025-042-SITE04-0054,170,Tachycardia,Tachycardia,Cardiac disorders,MODERATE,N,TREATMENT WITHDRAWN,PROBABLE,RECOVERED,2025-08-12,2025-08-26
CLIN-2025-042,AE,CLIN-2025-042-SITE04-0054,171,Nausea,Nausea,Gastrointestinal disorders,MODERATE,N,DOSE REDUCED,POSSIBLE,RECOVERED,2025-07-19,2025-07-25
CLIN-2025-042,AE,CLIN-2025-042-SITE04-0054,172,Diarrhea,Diarrhea,Gastrointestinal disorders,MILD,N,DOSE REDUCED,UNLIKELY,RECOVERING,2025-06-26,
CLIN-2025-042,AE,CLIN-2025-042-SITE05-0055,173,Insomnia,Insomnia,Nervous system disorders,MODERATE,N,TREATMENT INTERRUPTED,UNLIKELY,RECOVERED,2025-07-10,2025-07-20
CLIN-2025-042,AE,CLIN-2025-042-SITE05-0055,174,Fatigue,Fatigue,General disorders and administration site conditions,MILD,N,DOSE INCREASED,PROBABLE,RECOVERED,2025-06-17,2025-06-19
CLIN-2025-042,AE,CLIN-2025-042-SITE05-0055,175,Pruritus,Pruritus,Skin and subcutaneous tissue disorders,MODERATE,N,DOSE INCREASED,VERY LIKELY,RECOVERED,2025-05-25,2025-05-27
CLIN-2025-042,AE,CLIN-2025-042-SITE05-0055,176,Vomiting,Vomiting,Gastrointestinal disorders,MILD,N,DOSE INCREASED,POSSIBLE,RECOVERED,2025-07-04,
CLIN-2025-042,AE,CLIN-2025-042-SITE01-0056,177,Vomiting,Vomiting,Gastrointestinal disorders,SEVERE,N,TREATMENT INTERRUPTED,UNLIKELY,RECOVERED,2025-06-10,2025-06-13
CLIN-2025-042,AE,CLIN-2025-042-SITE01-0056,178,Cough,Cough,"Respiratory, thoracic and mediastinal disorders",MILD,N,NONE,POSSIBLE,RECOVERED,2025-06-08,2025-06-27
CLIN-2025-042,AE,CLIN-2025-042-SITE02-0057,179,Dizziness,Dizziness,Nervous system disorders,MILD,N,DOSE REDUCED,POSSIBLE,RECOVERED,2025-06-19,2025-06-23
CLIN-2025-042,AE,CLIN-2025-042-SITE02-0057,180,Abdominal pain,Abdominal pain,Gastrointestinal disorders,MILD,N,DOSE REDUCED,POSSIBLE,NOT RECOVERED,2025-06-22,2025-07-01
CLIN-2025-042,AE,CLIN-2025-042-SITE03-0058,181,Cough,Cough,"Respiratory, thoracic and mediastinal disorders",MILD,N,DOSE REDUCED,PROBABLE,RECOVERED,2025-06-08,2025-06-27
CLIN-2025-042,AE,CLIN-2025-042-SITE03-0058,182,Insomnia,Insomnia,Nervous system disorders,MODERATE,N,TREATMENT INTERRUPTED,PROBABLE,RECOVERED,2025-05-12,2025-05-15
CLIN-2025-042,AE,CLIN-2025-042-SITE04-0059,183,Pruritus,Pruritus,Skin and subcutaneous tissue disorders,SEVERE,N,NONE,POSSIBLE,RECOVERED,2025-03-09,2025-03-27
CLIN-2025-042,AE,CLIN-2025-042-SITE04-0059,184,Muscle pain,Muscle pain,Musculoskeletal and connective tissue disorders,MILD,N,TREATMENT WITHDRAWN,PROBABLE,RECOVERED,2025-03-17,2025-04-03
CLIN-2025-042,AE,CLIN-2025-042-SITE05-0060,185,Diarrhea,Diarrhea,Gastrointestinal disorders,MODERATE,N,TREATMENT INTERRUPTED,PROBABLE,UNKNOWN,2025-06-20,2025-06-24
CLIN-2025-042,AE,CLIN-2025-042-SITE05-0060,186,Muscle pain,Muscle pain,Musculoskeletal and connective tissue disorders,SEVERE,N,TREATMENT INTERRUPTED,PROBABLE,RECOVERED,2025-06-08,
CLIN-2025-042,AE,CLIN-2025-042-SITE05-0060,187,Back pain,Back pain,Musculoskeletal and connective tissue disorders,MILD,N,DOSE INCREASED,UNLIKELY,RECOVERED,2025-05-15,
CLIN-2025-042,AE,CLIN-2025-042-SITE05-0060,188,Insomnia,Insomnia,Nervous system disorders,MILD,N,TREATMENT INTERRUPTED,POSSIBLE,RECOVERED,2025-06-01,
CLIN-2025-042,AE,CLIN-2025-042-SITE01-0061,189,Insomnia,Insomnia,Nervous system disorders,MILD,N,DOSE REDUCED,POSSIBLE,RECOVERED,2025-05-14,2025-05-24
CLIN-2025-042,AE,CLIN-2025-042-SITE01-0061,190,Abdominal pain,Abdominal pain,Gastrointestinal disorders,MODERATE,N,NONE,PROBABLE,RECOVERED,2025-04-10,2025-04-13
CLIN-2025-042,AE,CLIN-2025-042-SITE02-0062,191,Nausea,Nausea,Gastrointestinal disorders,MODERATE,N,TREATMENT WITHDRAWN,PROBABLE,RECOVERED,2025-05-28,2025-06-15
CLIN-2025-042,AE,CLIN-2025-042-SITE02-0062,192,Pruritus,Pruritus,Skin and subcutaneous tissue disorders,MILD,N,NONE,UNLIKELY,RECOVERING,2025-06-16,2025-06-27
CLIN-2025-042,AE,CLIN-2025-042-SITE02-0062,193,Fever,Fever,General disorders and administration site conditions,MODERATE,N,DOSE REDUCED,POSSIBLE,RECOVERED,2025-05-25,2025-06-01
CLIN-2025-042,AE,CLIN-2025-042-SITE02-0062,194,Insomnia,Insomnia,Nervous system disorders,MILD,N,DOSE REDUCED,UNLIKELY,RECOVERED,2025-06-19,2025-06-24
CLIN-2025-042,AE,CLIN-2025-042-SITE02-0062,195,Dyspnea,Dyspnea,"Respiratory, thoracic and mediastinal disorders",MILD,N,TREATMENT INTERRUPTED,PROBABLE,RECOVERED,2025-06-12,2025-06-30
CLIN-2025-042,AE,CLIN-2025-042-SITE02-0062,196,Cough,Cough,"Respiratory, thoracic and mediastinal disorders",SEVERE,N,NONE,UNLIKELY,RECOVERED,2025-05-30,
CLIN-2025-042,AE,CLIN-2025-042-SITE02-0062,197,Hypertension,Hypertension,Vascular disorders,MILD,N,NONE,POSSIBLE,RECOVERED,2025-06-24,2025-06-30
CLIN-2025-042,AE,CLIN-2025-042-SITE03-0063,198,Constipation,Constipation,Gastrointestinal disorders,MODERATE,N,TREATMENT WITHDRAWN,POSSIBLE,RECOVERED,2025-07-25,2025-08-07
CLIN-2025-042,AE,CLIN-2025-042-SITE03-0063,199,Nausea,Nausea,Gastrointestinal disorders,MILD,N,DOSE REDUCED,VERY LIKELY,RECOVERED,2025-08-03,2025-08-20
CLIN-2025-042,AE,CLIN-2025-042-SITE03-0063,200,Tachycardia,Tachycardia,Cardiac disorders,MILD,N,TREATMENT INTERRUPTED,PROBABLE,RECOVERED,2025-07-03,2025-07-08
CLIN-2025-042,AE,CLIN-2025-042-SITE03-0063,201,Headache,Headache,Nervous system disorders,MILD,N,TREATMENT INTERRUPTED,UNLIKELY,RECOVERED,2025-07-27,2025-08-12
CLIN-2025-042,AE,CLIN-2025-042-SITE03-0063,202,Fatigue,Fatigue,General disorders and administration site conditions,MODERATE,N,TREATMENT WITHDRAWN,POSSIBLE,RECOVERED,2025-07-22,2025-08-01
CLIN-2025-042,AE,CLIN-2025-042-SITE03-0063,203,Insomnia,Insomnia,Nervous system disorders,MILD,N,DOSE INCREASED,POSSIBLE,RECOVERED,2025-08-12,2025-08-31
CLIN-2025-042,AE,CLIN-2025-042-SITE04-0064,204,Fatigue,Fatigue,General disorders and administration site conditions,MODERATE,N,TREATMENT WITHDRAWN,PROBABLE,RECOVERED,2025-04-24,
CLIN-2025-042,AE,CLIN-2025-042-SITE04-0064,205,Diarrhea,Diarrhea,Gastrointestinal disorders,MILD,N,DOSE INCREASED,UNLIKELY,NOT RECOVERED,2025-05-12,
CLIN-2025-042,AE,CLIN-2025-042-SITE04-0064,206,Abdominal pain,Abdominal pain,Gastrointestinal disorders,MILD,N,TREATMENT WITHDRAWN,POSSIBLE,FATAL,2025-03-31,2025-04-17
CLIN-2025-042,AE,CLIN-2025-042-SITE04-0064,207,Nausea,Nausea,Gastrointestinal disorders,SEVERE,N,TREATMENT WITHDRAWN,VERY LIKELY,RECOVERED,2025-04-22,2025-04-24
CLIN-2025-042,AE,CLIN-2025-042-SITE05-0065,208,Nausea,Nausea,Gastrointestinal disorders,MILD,N,TREATMENT INTERRUPTED,POSSIBLE,RECOVERED,2025-07-09,2025-07-15
CLIN-2025-042,AE,CLIN-2025-042-SITE01-0066,209,Insomnia,Insomnia,Nervous system disorders,MODERATE,N,TREATMENT WITHDRAWN,POSSIBLE,RECOVERED,2025-04-13,2025-04-16
CLIN-2025-042,AE,CLIN-2025-042-SITE01-0066,210,Abdominal pain,Abdominal pain,Gastrointestinal disorders,MODERATE,N,TREATMENT WITHDRAWN,UNLIKELY,RECOVERED,2025-05-10,2025-05-15
CLIN-2025-042,AE,CLIN-2025-042-SITE01-0066,211,Constipation,Constipation,Gastrointestinal disorders,MILD,N,TREATMENT INTERRUPTED,PROBABLE,RECOVERED,2025-05-13,2025-05-23
CLIN-2025-042,AE,CLIN-2025-042-SITE02-0067,212,Cough,Cough,"Respiratory, thoracic and mediastinal disorders",MILD,N,DOSE REDUCED,PROBABLE,RECOVERED,2025-08-08,2025-08-12
CLIN-2025-042,AE,CLIN-2025-042-SITE02-0067,213,Dyspnea,Dyspnea,"Respiratory, thoracic and mediastinal disorders",MILD,N,DOSE REDUCED,UNLIKELY,NOT RECOVERED,2025-06-27,2025-07-13
CLIN-2025-042,AE,CLIN-2025-042-SITE03-0068,214,Muscle pain,Muscle pain,Musculoskeletal and connective tissue disorders,MILD,N,NONE,POSSIBLE,RECOVERED,2025-06-19,2025-07-08
CLIN-2025-042,AE,CLIN-2025-042-SITE03-0068,215,Vomiting,Vomiting,Gastrointestinal disorders,MODERATE,N,NONE,PROBABLE,RECOVERED,2025-06-17,2025-07-04
CLIN-2025-042,AE,CLIN-2025-042-SITE04-0069,216,Cough,Cough,"Respiratory, thoracic and mediastinal disorders",MILD,N,NONE,UNLIKELY,RECOVERED,2025-05-25,2025-06-02
CLIN-2025-042,AE,CLIN-2025-042-SITE04-0069,217,Abdominal pain,Abdominal pain,Gastrointestinal disorders,MILD,N,TREATMENT INTERRUPTED,POSSIBLE,RECOVERED,2025-06-03,2025-06-05
CLIN-2025-042,AE,CLIN-2025-042-SITE04-0069,218,Insomnia,Insomnia,Nervous system disorders,MODERATE,N,TREATMENT INTERRUPTED,PROBABLE,RECOVERED,2025-05-27,2025-06-02
CLIN-2025-042,AE,CLIN-2025-042-SITE04-0069,219,Back pain,Back pain,Musculoskeletal and connective tissue disorders,MILD,N,NONE,UNLIKELY,NOT RECOVERED,2025-06-02,2025-06-12
CLIN-2025-042,AE,CLIN-2025-042-SITE04-0069,220,Dyspnea,Dyspnea,"Respiratory, thoracic and mediastinal disorders",MILD,Y,TREATMENT WITHDRAWN,POSSIBLE,RECOVERING,2025-05-13,2025-05-31
CLIN-2025-042,AE,CLIN-2025-042-SITE04-0069,221,Muscle pain,Muscle pain,Musculoskeletal and connective tissue disorders,SEVERE,N,DOSE INCREASED,VERY LIKELY,RECOVERED,2025-05-17,2025-06-05
CLIN-2025-042,AE,CLIN-2025-042-SITE04-0069,222,Fatigue,Fatigue,General disorders and administration site conditions,SEVERE,N,TREATMENT INTERRUPTED,PROBABLE,RECOVERED,2025-06-11,2025-06-22
CLIN-2025-042,AE,CLIN-2025-042-SITE05-0070,223,Nausea,Nausea,Gastrointestinal disorders,MILD,N,DOSE REDUCED,UNLIKELY,RECOVERING,2025-07-19,2025-07-21
CLIN-2025-042,AE,CLIN-2025-042-SITE05-0070,224,Constipation,Constipation,Gastrointestinal disorders,MILD,N,DOSE REDUCED,UNLIKELY,RECOVERED,2025-07-28,
CLIN-2025-042,AE,CLIN-2025-042-SITE05-0070,225,Pruritus,Pruritus,Skin and subcutaneous tissue disorders,MILD,Y,TREATMENT INTERRUPTED,PROBABLE,RECOVERED,2025-08-12,2025-08-27
CLIN-2025-042,AE,CLIN-2025-042-SITE01-0071,226,Abdominal pain,Abdominal pain,Gastrointestinal disorders,MILD,N,TREATMENT INTERRUPTED,UNLIKELY,RECOVERED,2025-05-06,2025-05-09
CLIN-2025-042,AE,CLIN-2025-042-SITE01-0071,227,Rash,Rash,Skin and subcutaneous tissue disorders,MILD,Y,DOSE INCREASED,POSSIBLE,RECOVERED,2025-04-25,2025-05-01
CLIN-2025-042,AE,CLIN-2025-042-SITE02-0072,228,Nausea,Nausea,Gastrointestinal disorders,MILD,N,TREATMENT INTERRUPTED,POSSIBLE,RECOVERED,2025-06-21,2025-06-27
CLIN-2025-042,AE,CLIN-2025-042-SITE02-0072,229,Tachycardia,Tachycardia,Cardiac disorders,MILD,N,TREATMENT WITHDRAWN,UNLIKELY,RECOVERED,2025-06-30,
CLIN-2025-042,AE,CLIN-2025-042-SITE02-0072,230,Fever,Fever,General disorders and administration site conditions,MODERATE,N,DOSE REDUCED,PROBABLE,RECOVERED,2025-06-17,2025-06-24
CLIN-2025-042,AE,CLIN-2025-042-SITE03-0073,231,Tremor,Tremor,Nervous system disorders,MILD,N,TREATMENT INTERRUPTED,UNLIKELY,RECOVERED,2025-02-23,2025-03-03
CLIN-2025-042,AE,CLIN-2025-042-SITE03-0073,232,Dizziness,Dizziness,Nervous system disorders,SEVERE,N,DOSE REDUCED,UNLIKELY,RECOVERED,2025-02-22,2025-02-27
CLIN-2025-042,AE,CLIN-2025-042-SITE03-0073,233,Nausea,Nausea,Gastrointestinal disorders,MODERATE,N,TREATMENT INTERRUPTED,UNLIKELY,RECOVERED,2025-02-02,
CLIN-2025-042,AE,CLIN-2025-042-SITE04-0074,234,Vomiting,Vomiting,Gastrointestinal disorders,SEVERE,N,DOSE REDUCED,VERY LIKELY,RECOVERED,2025-05-22,2025-05-30
CLIN-2025-042,AE,CLIN-2025-042-SITE05-0075,235,Insomnia,Insomnia,Nervous system disorders,MILD,N,TREATMENT WITHDRAWN,PROBABLE,RECOVERING,2025-08-05,2025-08-24
CLIN-2025-042,AE,CLIN-2025-042-SITE05-0075,236,Vomiting,Vomiting,Gastrointestinal disorders,MILD,Y,TREATMENT INTERRUPTED,POSSIBLE,RECOVERED,2025-07-03,2025-07-18
CLIN-2025-042,AE,CLIN-2025-042-SITE05-0075,237,Muscle pain,Muscle pain,Musculoskeletal and connective tissue disorders,MODERATE,N,DOSE INCREASED,UNLIKELY,RECOVERED,2025-07-21,
CLIN-2025-042,AE,CLIN-2025-042-SITE05-0075,238,Abdominal pain,Abdominal pain,Gastrointestinal disorders,MILD,N,TREATMENT WITHDRAWN,VERY LIKELY,RECOVERED,2025-06-24,2025-06-25
CLIN-2025-042,AE,CLIN-2025-042-SITE01-0076,239,Headache,Headache,Nervous system disorders,MILD,N,TREATMENT WITHDRAWN,UNLIKELY,RECOVERED,2025-07-10,2025-07-19
CLIN-2025-042,AE,CLIN-2025-042-SITE01-0076,240,Fatigue,Fatigue,General disorders and administration site conditions,MODERATE,N,DOSE REDUCED,VERY LIKELY,RECOVERED,2025-06-04,2025-06-06
CLIN-2025-042,AE,CLIN-2025-042-SITE01-0076,241,Muscle pain,Muscle pain,Musculoskeletal and connective tissue disorders,MODERATE,N,DOSE INCREASED,PROBABLE,RECOVERED,2025-06-19,2025-06-24
CLIN-2025-042,AE,CLIN-2025-042-SITE01-0076,242,Constipation,Constipation,Gastrointestinal disorders,MILD,N,NONE,VERY LIKELY,RECOVERED,2025-07-01,2025-07-10
CLIN-2025-042,AE,CLIN-2025-042-SITE01-0076,243,Headache,Headache,Nervous system disorders,MODERATE,N,TREATMENT WITHDRAWN,UNLIKELY,RECOVERED,2025-07-16,2025-07-29
CLIN-2025-042,AE,CLIN-2025-042-SITE01-0076,244,Headache,Headache,Nervous system disorders,MILD,Y,DOSE REDUCED,PROBABLE,RECOVERED,2025-06-17,2025-06-27
CLIN-2025-042,AE,CLIN-2025-042-SITE01-0076,245,Dyspnea,Dyspnea,"Respiratory, thoracic and mediastinal disorders",SEVERE,N,TREATMENT INTERRUPTED,POSSIBLE,RECOVERED,2025-07-16,2025-07-24
CLIN-2025-042,AE,CLIN-2025-042-SITE01-0076,246,Headache,Headache,Nervous system disorders,SEVERE,N,DOSE INCREASED,PROBABLE,RECOVERED,2025-06-01,
CLIN-2025-042,AE,CLIN-2025-042-SITE02-0077,247,Pruritus,Pruritus,Skin and subcutaneous tissue disorders,MILD,N,TREATMENT INTERRUPTED,UNLIKELY,RECOVERED,2025-03-18,2025-04-03
CLIN-2025-042,AE,CLIN-2025-042-SITE03-0078,248,Abdominal pain,Abdominal pain,Gastrointestinal disorders,MILD,N,DOSE REDUCED,POSSIBLE,RECOVERED,2025-02-11,2025-02-26
CLIN-2025-042,AE,CLIN-2025-042-SITE03-0078,249,Headache,Headache,Nervous system disorders,SEVERE,N,DOSE INCREASED,POSSIBLE,RECOVERING,2025-02-14,2025-02-19
CLIN-2025-042,AE,CLIN-2025-042-SITE03-0078,250,Cough,Cough,"Respiratory, thoracic and mediastinal disorders",MILD,N,DOSE INCREASED,UNLIKELY,RECOVERED,2025-03-09,2025-03-15
CLIN-2025-042,AE,CLIN-2025-042-SITE03-0078,251,Fatigue,Fatigue,General disorders and administration site conditions,MILD,N,NONE,PROBABLE,RECOVERED,2025-03-11,2025-03-23
CLIN-2025-042,AE,CLIN-2025-042-SITE04-0079,252,Tremor,Tremor,Nervous system disorders,MILD,N,DOSE REDUCED,VERY LIKELY,RECOVERED,2025-04-28,
CLIN-2025-042,AE,CLIN-2025-042-SITE04-0079,253,Constipation,Constipation,Gastrointestinal disorders,MILD,N,TREATMENT INTERRUPTED,UNLIKELY,RECOVERED,2025-04-17,
CLIN-2025-042,AE,CLIN-2025-042-SITE05-0080,254,Abdominal pain,Abdominal pain,Gastrointestinal disorders,SEVERE,N,DOSE REDUCED,VERY LIKELY,RECOVERED,2025-05-09,2025-05-14
CLIN-2025-042,AE,CLIN-2025-042-SITE05-0080,255,Hypertension,Hypertension,Vascular disorders,MODERATE,N,DOSE REDUCED,UNLIKELY,RECOVERING,2025-04-23,2025-05-05
CLIN-2025-042,AE,CLIN-2025-042-SITE01-0081,256,Rash,Rash,Skin and subcutaneous tissue disorders,MILD,N,DOSE INCREASED,PROBABLE,RECOVERED,2025-02-10,2025-02-12
CLIN-2025-042,AE,CLIN-2025-042-SITE02-0082,257,Abdominal pain,Abdominal pain,Gastrointestinal disorders,MILD,Y,NONE,PROBABLE,RECOVERED,2025-06-15,2025-07-02
CLIN-2025-042,AE,CLIN-2025-042-SITE02-0082,258,Abdominal pain,Abdominal pain,Gastrointestinal disorders,MODERATE,N,DOSE INCREASED,PROBABLE,RECOVERED,2025-06-25,2025-07-12
CLIN-2025-042,AE,CLIN-2025-042-SITE03-0083,259,Abdominal pain,Abdominal pain,Gastrointestinal disorders,MODERATE,N,TREATMENT WITHDRAWN,PROBABLE,RECOVERED,2025-04-02,2025-04-10
CLIN-2025-042,AE,CLIN-2025-042-SITE03-0083,260,Cough,Cough,"Respiratory, thoracic and mediastinal disorders",MILD,N,NONE,POSSIBLE,RECOVERED,2025-03-30,2025-03-31
CLIN-2025-042,AE,CLIN-2025-042-SITE03-0083,261,Dyspnea,Dyspnea,"Respiratory, thoracic and mediastinal disorders",MILD,N,NONE,UNLIKELY,RECOVERED,2025-04-17,
CLIN-2025-042,AE,CLIN-2025-042-SITE03-0083,262,Vomiting,Vomiting,Gastrointestinal disorders,SEVERE,N,NONE,UNLIKELY,RECOVERING,2025-04-14,2025-04-27
CLIN-2025-042,AE,CLIN-2025-042-SITE03-0083,263,Tachycardia,Tachycardia,Cardiac disorders,SEVERE,N,NONE,PROBABLE,RECOVERING,2025-04-23,2025-05-06
CLIN-2025-042,AE,CLIN-2025-042-SITE03-0083,264,Nausea,Nausea,Gastrointestinal disorders,SEVERE,N,TREATMENT INTERRUPTED,POSSIBLE,RECOVERING,2025-04-20,2025-05-03
CLIN-2025-042,AE,CLIN-2025-042-SITE03-0083,265,Rash,Rash,Skin and subcutaneous tissue disorders,MODERATE,N,TREATMENT WITHDRAWN,VERY LIKELY,RECOVERED,2025-03-29,2025-04-04
CLIN-2025-042,AE,CLIN-2025-042-SITE03-0083,266,Vomiting,Vomiting,Gastrointestinal disorders,MODERATE,N,DOSE INCREASED,POSSIBLE,RECOVERED,2025-04-20,2025-05-07
CLIN-2025-042,AE,CLIN-2025-042-SITE04-0084,267,Diarrhea,Diarrhea,Gastrointestinal disorders,MODERATE,N,NONE,POSSIBLE,RECOVERED,2025-03-11,2025-03-29
CLIN-2025-042,AE,CLIN-2025-042-SITE04-0084,268,Insomnia,Insomnia,Nervous system disorders,MILD,N,TREATMENT WITHDRAWN,POSSIBLE,NOT RECOVERED,2025-03-07,2025-03-09
CLIN-2025-042,AE,CLIN-2025-042-SITE04-0084,269,Rash,Rash,Skin and subcutaneous tissue disorders,MILD,N,TREATMENT WITHDRAWN,PROBABLE,RECOVERED,2025-02-25,2025-03-04
CLIN-2025-042,AE,CLIN-2025-042-SITE04-0084,270,Headache,Headache,Nervous system disorders,MILD,N,TREATMENT INTERRUPTED,POSSIBLE,NOT RECOVERED,2025-03-07,2025-03-26
CLIN-2025-042,AE,CLIN-2025-042-SITE04-0084,271,Headache,Headache,Nervous system disorders,MODERATE,Y,DOSE REDUCED,POSSIBLE,RECOVERED,2025-02-23,2025-02-28
CLIN-2025-042,AE,CLIN-2025-042-SITE05-0085,272,Fever,Fever,General disorders and administration site conditions,MODERATE,N,TREATMENT INTERRUPTED,POSSIBLE,NOT RECOVERED,2025-04-25,2025-05-12
CLIN-2025-042,AE,CLIN-2025-042-SITE05-0085,273,Pruritus,Pruritus,Skin and subcutaneous tissue disorders,MILD,N,TREATMENT INTERRUPTED,VERY LIKELY,RECOVERED,2025-04-10,
CLIN-2025-042,AE,CLIN-2025-042-SITE05-0085,274,Back pain,Back pain,Musculoskeletal and connective tissue disorders,MILD,N,NONE,UNLIKELY,RECOVERED,2025-04-13,2025-05-02
CLIN-2025-042,AE,CLIN-2025-042-SITE01-0086,275,Diarrhea,Diarrhea,Gastrointestinal disorders,MILD,N,DOSE INCREASED,PROBABLE,RECOVERED,2025-06-12,
CLIN-2025-042,AE,CLIN-2025-042-SITE01-0086,276,Insomnia,Insomnia,Nervous system disorders,MILD,N,TREATMENT WITHDRAWN,UNLIKELY,RECOVERED,2025-06-25,2025-06-28
CLIN-2025-042,AE,CLIN-2025-042-SITE01-0086,277,Pruritus,Pruritus,Skin and subcutaneous tissue disorders,MODERATE,Y,DOSE INCREASED,POSSIBLE,NOT RECOVERED,2025-07-02,
CLIN-2025-042,AE,CLIN-2025-042-SITE01-0086,278,Fever,Fever,General disorders and administration site conditions,MILD,N,NONE,UNLIKELY,RECOVERED,2025-06-08,2025-06-15
CLIN-2025-042,AE,CLIN-2025-042-SITE01-0086,279,Diarrhea,Diarrhea,Gastrointestinal disorders,MILD,N,DOSE REDUCED,POSSIBLE,RECOVERING,2025-07-01,2025-07-05
CLIN-2025-042,AE,CLIN-2025-042-SITE01-0086,280,Abdominal pain,Abdominal pain,Gastrointestinal disorders,MILD,N,NONE,PROBABLE,NOT RECOVERED,2025-06-23,2025-07-06
CLIN-2025-042,AE,CLIN-2025-042-SITE02-0087,281,Diarrhea,Diarrhea,Gastrointestinal disorders,MODERATE,N,DOSE INCREASED,POSSIBLE,RECOVERED,2025-04-23,2025-04-30
CLIN-2025-042,AE,CLIN-2025-042-SITE02-0087,282,Tremor,Tremor,Nervous system disorders,MODERATE,N,DOSE REDUCED,PROBABLE,RECOVERED,2025-04-05,2025-04-15
CLIN-2025-042,AE,CLIN-2025-042-SITE02-0087,283,Tachycardia,Tachycardia,Cardiac disorders,MILD,N,DOSE REDUCED,POSSIBLE,RECOVERED,2025-03-09,2025-03-18
CLIN-2025-042,AE,CLIN-2025-042-SITE03-0088,284,Constipation,Constipation,Gastrointestinal disorders,MILD,N,DOSE REDUCED,PROBABLE,NOT RECOVERED,2025-06-03,2025-06-22
CLIN-2025-042,AE,CLIN-2025-042-SITE03-0088,285,Cough,Cough,"Respiratory, thoracic and mediastinal disorders",MILD,N,NONE,VERY LIKELY,NOT RECOVERED,2025-06-05,2025-06-22
CLIN-2025-042,AE,CLIN-2025-042-SITE03-0088,286,Constipation,Constipation,Gastrointestinal disorders,MODERATE,N,TREATMENT INTERRUPTED,POSSIBLE,NOT RECOVERED,2025-05-22,2025-05-26
CLIN-2025-042,AE,CLIN-2025-042-SITE03-0088,287,Rash,Rash,Skin and subcutaneous tissue disorders,MODERATE,N,TREATMENT WITHDRAWN,POSSIBLE,NOT RECOVERED,2025-04-23,2025-05-12
CLIN-2025-042,AE,CLIN-2025-042-SITE04-0089,288,Insomnia,Insomnia,Nervous system disorders,MILD,Y,NONE,UNLIKELY,RECOVERED,2025-05-13,
CLIN-2025-042,AE,CLIN-2025-042-SITE04-0089,289,Insomnia,Insomnia,Nervous system disorders,MILD,N,TREATMENT WITHDRAWN,POSSIBLE,RECOVERING,2025-06-08,
CLIN-2025-042,AE,CLIN-2025-042-SITE04-0089,290,Muscle pain,Muscle pain,Musculoskeletal and connective tissue disorders,MILD,N,DOSE REDUCED,POSSIBLE,RECOVERED,2025-05-26,
CLIN-2025-042,AE,CLIN-2025-042-SITE04-0089,291,Cough,Cough,"Respiratory, thoracic and mediastinal disorders",MODERATE,N,DOSE REDUCED,UNLIKELY,RECOVERED,2025-05-12,2025-05-19
CLIN-2025-042,AE,CLIN-2025-042-SITE04-0089,292,Hypertension,Hypertension,Vascular disorders,MILD,N,TREATMENT INTERRUPTED,POSSIBLE,RECOVERED,2025-04-21,2025-04-23
CLIN-2025-042,AE,CLIN-2025-042-SITE04-0089,293,Muscle pain,Muscle pain,Musculoskeletal and connective tissue disorders,MILD,N,DOSE REDUCED,POSSIBLE,RECOVERED,2025-06-07,2025-06-23
CLIN-2025-042,AE,CLIN-2025-042-SITE04-0089,294,Fever,Fever,General disorders and administration site conditions,MILD,N,TREATMENT WITHDRAWN,UNLIKELY,RECOVERED,2025-06-08,2025-06-19
CLIN-2025-042,AE,CLIN-2025-042-SITE04-0089,295,Tremor,Tremor,Nervous system disorders,MILD,N,NONE,PROBABLE,RECOVERED,2025-05-22,2025-06-09
CLIN-2025-042,AE,CLIN-2025-042-SITE04-0089,296,Rash,Rash,Skin and subcutaneous tissue disorders,MILD,Y,TREATMENT INTERRUPTED,PROBABLE,RECOVERED,2025-04-26,2025-04-30
CLIN-2025-042,AE,CLIN-2025-042-SITE05-0090,297,Nausea,Nausea,Gastrointestinal disorders,MILD,N,TREATMENT INTERRUPTED,VERY LIKELY,RECOVERED,2025-08-02,
CLIN-2025-042,AE,CLIN-2025-042-SITE05-0090,298,Fever,Fever,General disorders and administration site conditions,SEVERE,N,DOSE REDUCED,POSSIBLE,RECOVERED,2025-08-16,2025-08-27
CLIN-2025-042,AE,CLIN-2025-042-SITE05-0090,299,Hypertension,Hypertension,Vascular disorders,MODERATE,N,DOSE INCREASED,PROBABLE,RECOVERED,2025-07-13,2025-07-19
CLIN-2025-042,AE,CLIN-2025-042-SITE05-0090,300,Muscle pain,Muscle pain,Musculoskeletal and connective tissue disorders,MILD,N,NONE,PROBABLE,RECOVERED,2025-07-07,2025-07-18
CLIN-2025-042,AE,CLIN-2025-042-SITE05-0090,301,Cough,Cough,"Respiratory, thoracic and mediastinal disorders",SEVERE,N,DOSE REDUCED,POSSIBLE,NOT RECOVERED,2025-08-02,
CLIN-2025-042,AE,CLIN-2025-042-SITE05-0090,302,Tremor,Tremor,Nervous system disorders,MILD,N,NONE,UNLIKELY,RECOVERED,2025-08-13,
CLIN-2025-042,AE,CLIN-2025-042-SITE05-0090,303,Fatigue,Fatigue,General disorders and administration site conditions,MILD,N,DOSE REDUCED,VERY LIKELY,RECOVERED,2025-08-13,2025-08-21
CLIN-2025-042,AE,CLIN-2025-042-SITE01-0091,304,Headache,Headache,Nervous system disorders,MILD,N,DOSE REDUCED,UNLIKELY,NOT RECOVERED,2025-05-13,2025-05-30
CLIN-2025-042,AE,CLIN-2025-042-SITE02-0092,305,Fatigue,Fatigue,General disorders and administration site conditions,SEVERE,N,DOSE REDUCED,POSSIBLE,RECOVERED,2025-04-01,2025-04-19
CLIN-2025-042,AE,CLIN-2025-042-SITE02-0092,306,Tachycardia,Tachycardia,Cardiac disorders,MILD,N,DOSE INCREASED,PROBABLE,RECOVERED,2025-03-11,2025-03-25
CLIN-2025-042,AE,CLIN-2025-042-SITE03-0093,307,Fatigue,Fatigue,General disorders and administration site conditions,MILD,N,TREATMENT INTERRUPTED,VERY LIKELY,RECOVERED,2025-04-18,2025-04-30
CLIN-2025-042,AE,CLIN-2025-042-SITE03-0093,308,Cough,Cough,"Respiratory, thoracic and mediastinal disorders",MILD,N,TREATMENT INTERRUPTED,PROBABLE,RECOVERED,2025-04-19,2025-05-01
CLIN-2025-042,AE,CLIN-2025-042-SITE03-0093,309,Insomnia,Insomnia,Nervous system disorders,MODERATE,N,DOSE REDUCED,UNLIKELY,RECOVERED,2025-03-15,2025-04-03
CLIN-2025-042,AE,CLIN-2025-042-SITE03-0093,310,Dyspnea,Dyspnea,"Respiratory, thoracic and mediastinal disorders",MILD,N,DOSE REDUCED,POSSIBLE,RECOVERED,2025-03-15,
CLIN-2025-042,AE,CLIN-2025-042-SITE04-0094,311,Headache,Headache,Nervous system disorders,MODERATE,N,DOSE INCREASED,VERY LIKELY,RECOVERING,2025-02-07,2025-02-18
CLIN-2025-042,AE,CLIN-2025-042-SITE04-0094,312,Constipation,Constipation,Gastrointestinal disorders,MILD,N,DOSE INCREASED,PROBABLE,RECOVERING,2025-01-24,
CLIN-2025-042,AE,CLIN-2025-042-SITE05-0095,313,Muscle pain,Muscle pain,Musculoskeletal and connective tissue disorders,MILD,N,TREATMENT INTERRUPTED,UNLIKELY,RECOVERED,2025-03-23,2025-04-04
CLIN-2025-042,AE,CLIN-2025-042-SITE05-0095,314,Pruritus,Pruritus,Skin and subcutaneous tissue disorders,MODERATE,N,NONE,PROBABLE,RECOVERED,2025-03-22,2025-04-05
CLIN-2025-042,AE,CLIN-2025-042-SITE05-0095,315,Insomnia,Insomnia,Nervous system disorders,MILD,N,TREATMENT WITHDRAWN,POSSIBLE,RECOVERED,2025-03-27,2025-04-11
CLIN-2025-042,AE,CLIN-2025-042-SITE05-0095,316,Headache,Headache,Nervous system disorders,MODERATE,N,TREATMENT INTERRUPTED,POSSIBLE,RECOVERED,2025-03-15,
CLIN-2025-042,AE,CLIN-2025-042-SITE01-0096,317,Pruritus,Pruritus,Skin and subcutaneous tissue disorders,MILD,N,TREATMENT WITHDRAWN,POSSIBLE,RECOVERING,2025-05-29,2025-06-03
CLIN-2025-042,AE,CLIN-2025-042-SITE01-0096,318,Fatigue,Fatigue,General disorders and administration site conditions,MODERATE,N,DOSE REDUCED,PROBABLE,RECOVERED,2025-04-19,2025-05-02
CLIN-2025-042,AE,CLIN-2025-042-SITE02-0097,319,Dyspnea,Dyspnea,"Respiratory, thoracic and mediastinal disorders",MODERATE,N,DOSE INCREASED,PROBABLE,RECOVERED,2025-06-10,2025-06-21
CLIN-2025-042,AE,CLIN-2025-042-SITE03-0098,320,Tachycardia,Tachycardia,Cardiac disorders,MILD,N,NONE,POSSIBLE,NOT RECOVERED,2025-08-12,
CLIN-2025-042,AE,CLIN-2025-042-SITE03-0098,321,Abdominal pain,Abdominal pain,Gastrointestinal disorders,MILD,N,TREATMENT INTERRUPTED,POSSIBLE,RECOVERED,2025-08-19,2025-09-06
CLIN-2025-042,AE,CLIN-2025-042-SITE04-0099,322,Headache,Headache,Nervous system disorders,MILD,N,TREATMENT WITHDRAWN,POSSIBLE,RECOVERED,2025-05-20,2025-06-07
CLIN-2025-042,AE,CLIN-2025-042-SITE04-0099,323,Cough,Cough,"Respiratory, thoracic and mediastinal disorders",MILD,N,DOSE REDUCED,VERY LIKELY,NOT RECOVERED,2025-06-05,2025-06-17
CLIN-2025-042,AE,CLIN-2025-042-SITE04-0099,324,Cough,Cough,"Respiratory, thoracic and mediastinal disorders",MODERATE,N,DOSE INCREASED,POSSIBLE,RECOVERED,2025-05-17,
CLIN-2025-042,AE,CLIN-2025-042-SITE05-0100,325,Dizziness,Dizziness,Nervous system disorders,MILD,N,NONE,UNLIKELY,NOT RECOVERED,2025-04-13,
CLIN-2025-042,AE,CLIN-2025-042-SITE01-0101,326,Fever,Fever,General disorders and administration site conditions,MILD,N,TREATMENT WITHDRAWN,PROBABLE,RECOVERED,2025-02-02,2025-02-11
CLIN-2025-042,AE,CLIN-2025-042-SITE02-0102,327,Tremor,Tremor,Nervous system disorders,MODERATE,Y,NONE,VERY LIKELY,RECOVERED,2025-07-06,
CLIN-2025-042,AE,CLIN-2025-042-SITE02-0102,328,Tremor,Tremor,Nervous system disorders,MILD,N,NONE,POSSIBLE,NOT RECOVERED,2025-06-19,2025-06-24
CLIN-2025-042,AE,CLIN-2025-042-SITE02-0102,329,Fatigue,Fatigue,General disorders and administration site conditions,MILD,N,TREATMENT INTERRUPTED,PROBABLE,RECOVERED,2025-07-12,2025-07-25
CLIN-2025-042,AE,CLIN-2025-042-SITE02-0102,330,Constipation,Constipation,Gastrointestinal disorders,MODERATE,N,DOSE REDUCED,POSSIBLE,RECOVERED,2025-07-13,2025-07-31
CLIN-2025-042,AE,CLIN-2025-042-SITE03-0103,331,Tremor,Tremor,Nervous system disorders,MODERATE,N,NONE,UNLIKELY,NOT RECOVERED,2025-03-18,2025-03-20
CLIN-2025-042,AE,CLIN-2025-042-SITE03-0103,332,Fatigue,Fatigue,General disorders and administration site conditions,MODERATE,N,TREATMENT WITHDRAWN,UNLIKELY,RECOVERED,2025-02-18,2025-02-20
CLIN-2025-042,AE,CLIN-2025-042-SITE03-0103,333,Fever,Fever,General disorders and administration site conditions,MILD,N,TREATMENT INTERRUPTED,POSSIBLE,RECOVERING,2025-02-17,2025-03-07
CLIN-2025-042,AE,CLIN-2025-042-SITE03-0103,334,Tachycardia,Tachycardia,Cardiac disorders,MODERATE,N,DOSE INCREASED,POSSIBLE,RECOVERED,2025-02-12,2025-02-25
CLIN-2025-042,AE,CLIN-2025-042-SITE04-0104,335,Back pain,Back pain,Musculoskeletal and connective tissue disorders,MODERATE,N,TREATMENT INTERRUPTED,POSSIBLE,RECOVERED,2025-04-29,2025-05-03
CLIN-2025-042,AE,CLIN-2025-042-SITE04-0104,336,Tremor,Tremor,Nervous system disorders,SEVERE,N,NONE,UNLIKELY,RECOVERED,2025-04-26,
CLIN-2025-042,AE,CLIN-2025-042-SITE04-0104,337,Hypertension,Hypertension,Vascular disorders,MILD,N,TREATMENT INTERRUPTED,UNLIKELY,RECOVERING,2025-04-02,
CLIN-2025-042,AE,CLIN-2025-042-SITE04-0104,338,Hypertension,Hypertension,Vascular disorders,MILD,N,DOSE REDUCED,UNLIKELY,NOT RECOVERED,2025-04-20,2025-04-25
CLIN-2025-042,AE,CLIN-2025-042-SITE05-0105,339,Vomiting,Vomiting,Gastrointestinal disorders,SEVERE,N,TREATMENT WITHDRAWN,POSSIBLE,RECOVERED,2025-06-25,2025-07-06
CLIN-2025-042,AE,CLIN-2025-042-SITE05-0105,340,Rash,Rash,Skin and subcutaneous tissue disorders,SEVERE,N,NONE,VERY LIKELY,RECOVERED,2025-06-18,2025-06-27
CLIN-2025-042,AE,CLIN-2025-042-SITE01-0106,341,Vomiting,Vomiting,Gastrointestinal disorders,MILD,N,TREATMENT INTERRUPTED,UNLIKELY,RECOVERED,2025-06-16,2025-07-01
CLIN-2025-042,AE,CLIN-2025-042-SITE01-0106,342,Nausea,Nausea,Gastrointestinal disorders,MODERATE,Y,TREATMENT INTERRUPTED,POSSIBLE,RECOVERED,2025-06-30,2025-07-07
CLIN-2025-042,AE,CLIN-2025-042-SITE01-0106,343,Fever,Fever,General disorders and administration site conditions,MILD,N,NONE,VERY LIKELY,RECOVERED,2025-07-02,
CLIN-2025-042,AE,CLIN-2025-042-SITE01-0106,344,Tremor,Tremor,Nervous system disorders,MILD,Y,TREATMENT WITHDRAWN,POSSIBLE,RECOVERED,2025-06-23,2025-06-29
CLIN-2025-042,AE,CLIN-2025-042-SITE03-0108,345,Hypertension,Hypertension,Vascular disorders,MILD,N,DOSE REDUCED,VERY LIKELY,RECOVERED,2025-02-08,2025-02-24
CLIN-2025-042,AE,CLIN-2025-042-SITE03-0108,346,Tremor,Tremor,Nervous system disorders,MILD,Y,NONE,VERY LIKELY,RECOVERED,2025-02-11,2025-02-24
CLIN-2025-042,AE,CLIN-2025-042-SITE04-0109,347,Dyspnea,Dyspnea,"Respiratory, thoracic and mediastinal disorders",MILD,N,NONE,POSSIBLE,UNKNOWN,2025-05-25,2025-05-26
CLIN-2025-042,AE,CLIN-2025-042-SITE04-0109,348,Headache,Headache,Nervous system disorders,MILD,N,DOSE INCREASED,POSSIBLE,RECOVERED,2025-05-09,2025-05-26
CLIN-2025-042,AE,CLIN-2025-042-SITE05-0110,349,Hypertension,Hypertension,Vascular disorders,MODERATE,N,NONE,UNLIKELY,UNKNOWN,2025-01-31,2025-02-16
CLIN-2025-042,AE,CLIN-2025-042-SITE05-0110,350,Pruritus,Pruritus,Skin and subcutaneous tissue disorders,MILD,N,DOSE REDUCED,POSSIBLE,NOT RECOVERED,2025-02-17,2025-03-06
CLIN-2025-042,AE,CLIN-2025-042-SITE05-0110,351,Fever,Fever,General disorders and administration site conditions,MODERATE,N,TREATMENT WITHDRAWN,PROBABLE,RECOVERED,2025-02-27,2025-03-08
CLIN-2025-042,AE,CLIN-2025-042-SITE01-0111,352,Muscle pain,Muscle pain,Musculoskeletal and connective tissue disorders,MILD,Y,DOSE INCREASED,UNLIKELY,UNKNOWN,2025-06-29,2025-07-03
CLIN-2025-042,AE,CLIN-2025-042-SITE02-0112,353,Fatigue,Fatigue,General disorders and administration site conditions,MODERATE,N,DOSE INCREASED,POSSIBLE,RECOVERED,2025-05-02,2025-05-18
CLIN-2025-042,AE,CLIN-2025-042-SITE02-0112,354,Cough,Cough,"Respiratory, thoracic and mediastinal disorders",MILD,N,DOSE REDUCED,UNLIKELY,RECOVERING,2025-04-12,2025-04-13
CLIN-2025-042,AE,CLIN-2025-042-SITE02-0112,355,Abdominal pain,Abdominal pain,Gastrointestinal disorders,MILD,N,TREATMENT WITHDRAWN,POSSIBLE,RECOVERED,2025-04-27,2025-05-13
CLIN-2025-042,AE,CLIN-2025-042-SITE03-0113,356,Back pain,Back pain,Musculoskeletal and connective tissue disorders,MILD,N,TREATMENT INTERRUPTED,POSSIBLE,RECOVERED,2025-03-05,2025-03-13
CLIN-2025-042,AE,CLIN-2025-042-SITE03-0113,357,Hypertension,Hypertension,Vascular disorders,MILD,N,NONE,VERY LIKELY,RECOVERED,2025-03-11,2025-03-18
CLIN-2025-042,AE,CLIN-2025-042-SITE03-0113,358,Cough,Cough,"Respiratory, thoracic and mediastinal disorders",MILD,N,DOSE INCREASED,PROBABLE,RECOVERED,2025-04-03,2025-04-14
CLIN-2025-042,AE,CLIN-2025-042-SITE04-0114,359,Abdominal pain,Abdominal pain,Gastrointestinal disorders,MILD,N,DOSE INCREASED,POSSIBLE,RECOVERED,2025-04-13,
CLIN-2025-042,AE,CLIN-2025-042-SITE05-0115,360,Back pain,Back pain,Musculoskeletal and connective tissue disorders,MILD,N,TREATMENT INTERRUPTED,POSSIBLE,RECOVERED,2025-03-14,2025-03-26
CLIN-2025-042,AE,CLIN-2025-042-SITE05-0115,361,Tremor,Tremor,Nervous system disorders,MILD,N,TREATMENT INTERRUPTED,POSSIBLE,RECOVERED,2025-04-11,2025-04-28
CLIN-2025-042,AE,CLIN-2025-042-SITE01-0116,362,Tremor,Tremor,Nervous system disorders,MILD,N,TREATMENT WITHDRAWN,POSSIBLE,RECOVERING,2025-07-29,
CLIN-2025-042,AE,CLIN-2025-042-SITE02-0117,363,Dizziness,Dizziness,Nervous system disorders,MODERATE,Y,DOSE REDUCED,PROBABLE,RECOVERED,2025-03-11,2025-03-20
CLIN-2025-042,AE,CLIN-2025-042-SITE02-0117,364,Dizziness,Dizziness,Nervous system disorders,MODERATE,N,DOSE REDUCED,POSSIBLE,RECOVERED,2025-03-03,2025-03-12
CLIN-2025-042,AE,CLIN-2025-042-SITE03-0118,365,Fatigue,Fatigue,General disorders and administration site conditions,SEVERE,N,NONE,PROBABLE,RECOVERED,2025-05-02,2025-05-14
CLIN-2025-042,AE,CLIN-2025-042-SITE04-0119,366,Headache,Headache,Nervous system disorders,MODERATE,Y,NONE,POSSIBLE,RECOVERED,2025-05-31,
CLIN-2025-042,AE,CLIN-2025-042-SITE04-0119,367,Tremor,Tremor,Nervous system disorders,MODERATE,N,DOSE REDUCED,UNLIKELY,RECOVERING,2025-06-08,2025-06-21
CLIN-2025-042,AE,CLIN-2025-042-SITE04-0119,368,Back pain,Back pain,Musculoskeletal and connective tissue disorders,MODERATE,N,DOSE INCREASED,VERY LIKELY,NOT RECOVERED,2025-05-31,
CLIN-2025-042,AE,CLIN-2025-042-SITE04-0119,369,Back pain,Back pain,Musculoskeletal and connective tissue disorders,MILD,N,TREATMENT WITHDRAWN,UNLIKELY,NOT RECOVERED,2025-05-21,2025-05-29
CLIN-2025-042,AE,CLIN-2025-042-SITE05-0120,370,Headache,Headache,Nervous system disorders,MILD,N,NONE,VERY LIKELY,RECOVERING,2025-04-20,
CLIN-2025-042,AE,CLIN-2025-042-SITE05-0120,371,Hypertension,Hypertension,Vascular disorders,MILD,N,DOSE REDUCED,PROBABLE,RECOVERED,2025-05-17,2025-05-27
CLIN-2025-042,AE,CLIN-2025-042-SITE05-0120,372,Tachycardia,Tachycardia,Cardiac disorders,MODERATE,N,DOSE INCREASED,PROBABLE,RECOVERED,2025-05-02,
CLIN-2025-042,AE,CLIN-2025-042-SITE05-0120,373,Nausea,Nausea,Gastrointestinal disorders,MILD,N,NONE,POSSIBLE,RECOVERED,2025-04-23,
CLIN-2025-042,AE,CLIN-2025-042-SITE01-0121,374,Headache,Headache,Nervous system disorders,MODERATE,N,NONE,UNLIKELY,RECOVERED,2025-06-16,2025-06-22
CLIN-2025-042,AE,CLIN-2025-042-SITE01-0121,375,Dizziness,Dizziness,Nervous system disorders,MODERATE,N,DOSE REDUCED,POSSIBLE,RECOVERED,2025-07-14,2025-07-19
CLIN-2025-042,AE,CLIN-2025-042-SITE01-0121,376,Back pain,Back pain,Musculoskeletal and connective tissue disorders,MILD,N,DOSE REDUCED,PROBABLE,RECOVERED,2025-07-17,2025-07-24
CLIN-2025-042,AE,CLIN-2025-042-SITE01-0121,377,Headache,Headache,Nervous system disorders,MILD,N,NONE,PROBABLE,RECOVERED,2025-07-15,2025-07-29
CLIN-2025-042,AE,CLIN-2025-042-SITE02-0122,378,Pruritus,Pruritus,Skin and subcutaneous tissue disorders,MODERATE,N,DOSE INCREASED,POSSIBLE,RECOVERED,2025-06-16,2025-07-03
CLIN-2025-042,AE,CLIN-2025-042-SITE02-0122,379,Abdominal pain,Abdominal pain,Gastrointestinal disorders,MILD,N,DOSE INCREASED,PROBABLE,RECOVERED,2025-07-15,
CLIN-2025-042,AE,CLIN-2025-042-SITE02-0122,380,Rash,Rash,Skin and subcutaneous tissue disorders,MODERATE,N,DOSE INCREASED,PROBABLE,RECOVERED,2025-06-16,2025-06-21
CLIN-2025-042,AE,CLIN-2025-042-SITE03-0123,381,Headache,Headache,Nervous system disorders,MILD,N,NONE,POSSIBLE,RECOVERED,2025-03-27,2025-04-02
CLIN-2025-042,AE,CLIN-2025-042-SITE03-0123,382,Cough,Cough,"Respiratory, thoracic and mediastinal disorders",MILD,N,DOSE INCREASED,POSSIBLE,NOT RECOVERED,2025-03-09,2025-03-18
CLIN-2025-042,AE,CLIN-2025-042-SITE04-0124,383,Hypertension,Hypertension,Vascular disorders,MODERATE,N,NONE,POSSIBLE,NOT RECOVERED,2025-08-10,
CLIN-2025-042,AE,CLIN-2025-042-SITE04-0124,384,Fatigue,Fatigue,General disorders and administration site conditions,SEVERE,N,TREATMENT WITHDRAWN,UNLIKELY,RECOVERED,2025-08-04,2025-08-20
CLIN-2025-042,AE,CLIN-2025-042-SITE04-0124,385,Insomnia,Insomnia,Nervous system disorders,MILD,N,NONE,POSSIBLE,RECOVERED,2025-08-15,2025-08-17
CLIN-2025-042,AE,CLIN-2025-042-SITE04-0124,386,Hypertension,Hypertension,Vascular disorders,MILD,N,NONE,PROBABLE,RECOVERING,2025-08-03,2025-08-12
CLIN-2025-042,AE,CLIN-2025-042-SITE05-0125,387,Rash,Rash,Skin and subcutaneous tissue disorders,MILD,N,NONE,UNLIKELY,RECOVERING,2025-06-18,
CLIN-2025-042,AE,CLIN-2025-042-SITE01-0126,388,Constipation,Constipation,Gastrointestinal disorders,SEVERE,N,DOSE REDUCED,PROBABLE,UNKNOWN,2025-02-27,2025-03-07
CLIN-2025-042,AE,CLIN-2025-042-SITE01-0126,389,Fatigue,Fatigue,General disorders and administration site conditions,MILD,N,DOSE INCREASED,UNLIKELY,RECOVERING,2025-01-18,2025-02-04
CLIN-2025-042,AE,CLIN-2025-042-SITE01-0126,390,Diarrhea,Diarrhea,Gastrointestinal disorders,MODERATE,Y,NONE,UNLIKELY,NOT RECOVERED,2025-02-24,2025-02-25
CLIN-2025-042,AE,CLIN-2025-042-SITE02-0127,391,Headache,Headache,Nervous system disorders,MODERATE,N,TREATMENT INTERRUPTED,PROBABLE,RECOVERED,2025-06-26,2025-07-15
CLIN-2025-042,AE,CLIN-2025-042-SITE02-0127,392,Insomnia,Insomnia,Nervous system disorders,MILD,N,DOSE REDUCED,UNLIKELY,FATAL,2025-07-04,2025-07-06
CLIN-2025-042,AE,CLIN-2025-042-SITE02-0127,393,Back pain,Back pain,Musculoskeletal and connective tissue disorders,MILD,N,NONE,UNLIKELY,RECOVERING,2025-07-04,
CLIN-2025-042,AE,CLIN-2025-042-SITE02-0127,394,Constipation,Constipation,Gastrointestinal disorders,MILD,N,DOSE INCREASED,POSSIBLE,RECOVERED,2025-07-29,2025-08-06
CLIN-2025-042,AE,CLIN-2025-042-SITE03-0128,395,Tachycardia,Tachycardia,Cardiac disorders,MILD,N,TREATMENT INTERRUPTED,UNLIKELY,RECOVERING,2025-06-04,2025-06-22
CLIN-2025-042,AE,CLIN-2025-042-SITE03-0128,396,Insomnia,Insomnia,Nervous system disorders,MILD,N,DOSE REDUCED,VERY LIKELY,RECOVERED,2025-05-09,2025-05-13
CLIN-2025-042,AE,CLIN-2025-042-SITE03-0128,397,Insomnia,Insomnia,Nervous system disorders,MILD,N,NONE,VERY LIKELY,NOT RECOVERED,2025-06-04,2025-06-19
CLIN-2025-042,AE,CLIN-2025-042-SITE03-0128,398,Cough,Cough,"Respiratory, thoracic and mediastinal disorders",MILD,N,TREATMENT WITHDRAWN,PROBABLE,RECOVERED,2025-05-15,2025-06-03
CLIN-2025-042,AE,CLIN-2025-042-SITE04-0129,399,Headache,Headache,Nervous system disorders,MILD,N,DOSE REDUCED,POSSIBLE,RECOVERING,2025-04-08,
CLIN-2025-042,AE,CLIN-2025-042-SITE04-0129,400,Back pain,Back pain,Musculoskeletal and connective tissue disorders,MILD,Y,NONE,PROBABLE,RECOVERED,2025-03-20,2025-04-08
CLIN-2025-042,AE,CLIN-2025-042-SITE05-0130,401,Headache,Headache,Nervous system disorders,MODERATE,N,NONE,UNLIKELY,NOT RECOVERED,2025-02-19,2025-03-03
CLIN-2025-042,AE,CLIN-2025-042-SITE05-0130,402,Headache,Headache,Nervous system disorders,MODERATE,N,DOSE REDUCED,POSSIBLE,RECOVERED,2025-03-03,2025-03-21
CLIN-2025-042,AE,CLIN-2025-042-SITE05-0130,403,Abdominal pain,Abdominal pain,Gastrointestinal disorders,MILD,N,NONE,PROBABLE,RECOVERED,2025-03-14,2025-03-19
CLIN-2025-042,AE,CLIN-2025-042-SITE05-0130,404,Nausea,Nausea,Gastrointestinal disorders,MODERATE,Y,DOSE REDUCED,POSSIBLE,RECOVERED,2025-03-20,2025-03-23
CLIN-2025-042,AE,CLIN-2025-042-SITE01-0131,405,Hypertension,Hypertension,Vascular disorders,MILD,N,NONE,POSSIBLE,NOT RECOVERED,2025-04-27,
CLIN-2025-042,AE,CLIN-2025-042-SITE01-0131,406,Muscle pain,Muscle pain,Musculoskeletal and connective tissue disorders,MILD,N,DOSE INCREASED,UNLIKELY,RECOVERED,2025-05-07,
CLIN-2025-042,AE,CLIN-2025-042-SITE01-0131,407,Tachycardia,Tachycardia,Cardiac disorders,MILD,N,NONE,POSSIBLE,RECOVERED,2025-04-12,2025-04-20
CLIN-2025-042,AE,CLIN-2025-042-SITE01-0131,408,Tachycardia,Tachycardia,Cardiac disorders,MILD,N,TREATMENT WITHDRAWN,PROBABLE,NOT RECOVERED,2025-05-09,2025-05-25
CLIN-2025-042,AE,CLIN-2025-042-SITE03-0133,409,Hypertension,Hypertension,Vascular disorders,SEVERE,N,DOSE REDUCED,PROBABLE,RECOVERED,2025-03-28,
CLIN-2025-042,AE,CLIN-2025-042-SITE03-0133,410,Fatigue,Fatigue,General disorders and administration site conditions,MILD,N,DOSE REDUCED,POSSIBLE,RECOVERED,2025-03-27,2025-04-02
CLIN-2025-042,AE,CLIN-2025-042-SITE03-0133,411,Diarrhea,Diarrhea,Gastrointestinal disorders,MILD,N,TREATMENT INTERRUPTED,POSSIBLE,RECOVERED,2025-04-05,2025-04-20
CLIN-2025-042,AE,CLIN-2025-042-SITE04-0134,412,Insomnia,Insomnia,Nervous system disorders,MODERATE,N,DOSE INCREASED,PROBABLE,RECOVERING,2025-03-11,2025-03-26
CLIN-2025-042,AE,CLIN-2025-042-SITE04-0134,413,Fatigue,Fatigue,General disorders and administration site conditions,MILD,N,TREATMENT WITHDRAWN,POSSIBLE,RECOVERED,2025-03-26,2025-04-11
CLIN-2025-042,AE,CLIN-2025-042-SITE04-0134,414,Fever,Fever,General disorders and administration site conditions,MODERATE,N,DOSE INCREASED,POSSIBLE,RECOVERED,2025-02-28,2025-03-09
CLIN-2025-042,AE,CLIN-2025-042-SITE05-0135,415,Diarrhea,Diarrhea,Gastrointestinal disorders,MILD,N,TREATMENT INTERRUPTED,POSSIBLE,RECOVERED,2025-06-26,2025-07-14
CLIN-2025-042,AE,CLIN-2025-042-SITE05-0135,416,Fever,Fever,General disorders and administration site conditions,MILD,N,TREATMENT WITHDRAWN,POSSIBLE,UNKNOWN,2025-07-03,2025-07-04
CLIN-2025-042,AE,CLIN-2025-042-SITE01-0136,417,Diarrhea,Diarrhea,Gastrointestinal disorders,MILD,N,DOSE REDUCED,PROBABLE,RECOVERED,2025-07-20,2025-08-01
CLIN-2025-042,AE,CLIN-2025-042-SITE01-0136,418,Back pain,Back pain,Musculoskeletal and connective tissue disorders,MODERATE,N,DOSE INCREASED,POSSIBLE,FATAL,2025-08-04,2025-08-19
CLIN-2025-042,AE,CLIN-2025-042-SITE02-0137,419,Vomiting,Vomiting,Gastrointestinal disorders,MODERATE,N,TREATMENT WITHDRAWN,PROBABLE,RECOVERED,2025-05-18,
CLIN-2025-042,AE,CLIN-2025-042-SITE02-0137,420,Rash,Rash,Skin and subcutaneous tissue disorders,MILD,N,DOSE INCREASED,VERY LIKELY,RECOVERED,2025-06-10,2025-06-19
CLIN-2025-042,AE,CLIN-2025-042-SITE02-0137,421,Insomnia,Insomnia,Nervous system disorders,MILD,N,TREATMENT WITHDRAWN,POSSIBLE,RECOVERED,2025-06-25,2025-07-05
CLIN-2025-042,AE,CLIN-2025-042-SITE02-0137,422,Back pain,Back pain,Musculoskeletal and connective tissue disorders,MILD,N,TREATMENT WITHDRAWN,UNLIKELY,RECOVERED,2025-06-12,
CLIN-2025-042,AE,CLIN-2025-042-SITE02-0137,423,Pruritus,Pruritus,Skin and subcutaneous tissue disorders,MILD,N,DOSE INCREASED,POSSIBLE,RECOVERED,2025-05-16,
CLIN-2025-042,AE,CLIN-2025-042-SITE02-0137,424,Hypertension,Hypertension,Vascular disorders,MILD,N,NONE,POSSIBLE,RECOVERED,2025-06-25,
CLIN-2025-042,AE,CLIN-2025-042-SITE02-0137,425,Nausea,Nausea,Gastrointestinal disorders,MODERATE,Y,TREATMENT INTERRUPTED,PROBABLE,RECOVERED,2025-06-07,2025-06-15
CLIN-2025-042,AE,CLIN-2025-042-SITE02-0137,426,Nausea,Nausea,Gastrointestinal disorders,MODERATE,N,TREATMENT WITHDRAWN,POSSIBLE,RECOVERED,2025-05-20,2025-05-30
CLIN-2025-042,AE,CLIN-2025-042-SITE03-0138,427,Rash,Rash,Skin and subcutaneous tissue disorders,MILD,N,DOSE INCREASED,POSSIBLE,RECOVERED,2025-02-28,2025-03-14
CLIN-2025-042,AE,CLIN-2025-042-SITE03-0138,428,Fatigue,Fatigue,General disorders and administration site conditions,MILD,N,DOSE INCREASED,VERY LIKELY,UNKNOWN,2025-02-26,2025-03-16
CLIN-2025-042,AE,CLIN-2025-042-SITE04-0139,429,Headache,Headache,Nervous system disorders,MODERATE,N,DOSE INCREASED,UNLIKELY,UNKNOWN,2025-02-20,2025-03-05
CLIN-2025-042,AE,CLIN-2025-042-SITE04-0139,430,Headache,Headache,Nervous system disorders,MILD,N,TREATMENT INTERRUPTED,VERY LIKELY,RECOVERED,2025-02-18,2025-03-05
CLIN-2025-042,AE,CLIN-2025-042-SITE04-0139,431,Rash,Rash,Skin and subcutaneous tissue disorders,MILD,N,NONE,POSSIBLE,RECOVERED,2025-03-25,2025-03-26
CLIN-2025-042,AE,CLIN-2025-042-SITE04-0139,432,Nausea,Nausea,Gastrointestinal disorders,MILD,N,TREATMENT INTERRUPTED,POSSIBLE,RECOVERED,2025-03-07,2025-03-24
CLIN-2025-042,AE,CLIN-2025-042-SITE05-0140,433,Cough,Cough,"Respiratory, thoracic and mediastinal disorders",MILD,N,TREATMENT INTERRUPTED,POSSIBLE,UNKNOWN,2025-02-21,2025-02-24
CLIN-2025-042,AE,CLIN-2025-042-SITE05-0140,434,Tremor,Tremor,Nervous system disorders,MILD,N,TREATMENT INTERRUPTED,POSSIBLE,RECOVERED,2025-02-18,
CLIN-2025-042,AE,CLIN-2025-042-SITE05-0140,435,Vomiting,Vomiting,Gastrointestinal disorders,MILD,N,DOSE REDUCED,PROBABLE,RECOVERED,2025-02-27,2025-03-10
CLIN-2025-042,AE,CLIN-2025-042-SITE05-0140,436,Tremor,Tremor,Nervous system disorders,MILD,N,DOSE REDUCED,PROBABLE,RECOVERED,2025-03-06,2025-03-22
CLIN-2025-042,AE,CLIN-2025-042-SITE05-0140,437,Hypertension,Hypertension,Vascular disorders,MODERATE,N,NONE,UNLIKELY,RECOVERED,2025-03-12,2025-03-16
CLIN-2025-042,AE,CLIN-2025-042-SITE05-0140,438,Tachycardia,Tachycardia,Cardiac disorders,MODERATE,N,TREATMENT WITHDRAWN,POSSIBLE,RECOVERING,2025-03-23,2025-03-27
CLIN-2025-042,AE,CLIN-2025-042-SITE01-0141,439,Tremor,Tremor,Nervous system disorders,MILD,N,DOSE INCREASED,VERY LIKELY,RECOVERED,2025-04-16,2025-05-05
CLIN-2025-042,AE,CLIN-2025-042-SITE01-0141,440,Hypertension,Hypertension,Vascular disorders,MILD,N,DOSE INCREASED,UNLIKELY,RECOVERING,2025-04-14,2025-04-25
CLIN-2025-042,AE,CLIN-2025-042-SITE01-0141,441,Muscle pain,Muscle pain,Musculoskeletal and connective tissue disorders,MILD,N,NONE,POSSIBLE,RECOVERED,2025-04-26,2025-05-03
CLIN-2025-042,AE,CLIN-2025-042-SITE01-0141,442,Tachycardia,Tachycardia,Cardiac disorders,SEVERE,N,TREATMENT INTERRUPTED,PROBABLE,RECOVERED,2025-05-15,2025-05-21
CLIN-2025-042,AE,CLIN-2025-042-SITE01-0141,443,Headache,Headache,Nervous system disorders,MILD,N,NONE,VERY LIKELY,RECOVERED,2025-04-18,2025-04-28
CLIN-2025-042,AE,CLIN-2025-042-SITE02-0142,444,Vomiting,Vomiting,Gastrointestinal disorders,SEVERE,N,DOSE REDUCED,UNLIKELY,RECOVERED,2025-06-02,2025-06-20
CLIN-2025-042,AE,CLIN-2025-042-SITE03-0143,445,Back pain,Back pain,Musculoskeletal and connective tissue disorders,MODERATE,N,DOSE INCREASED,POSSIBLE,NOT RECOVERED,2025-03-20,2025-03-25
CLIN-2025-042,AE,CLIN-2025-042-SITE03-0143,446,Muscle pain,Muscle pain,Musculoskeletal and connective tissue disorders,MILD,Y,DOSE REDUCED,VERY LIKELY,RECOVERING,2025-03-08,
CLIN-2025-042,AE,CLIN-2025-042-SITE04-0144,447,Tachycardia,Tachycardia,Cardiac disorders,MILD,N,DOSE REDUCED,PROBABLE,RECOVERED,2025-04-25,2025-05-10
CLIN-2025-042,AE,CLIN-2025-042-SITE04-0144,448,Headache,Headache,Nervous system disorders,MILD,N,DOSE INCREASED,PROBABLE,RECOVERED,2025-04-04,2025-04-11
CLIN-2025-042,AE,CLIN-2025-042-SITE04-0144,449,Rash,Rash,Skin and subcutaneous tissue disorders,SEVERE,Y,DOSE REDUCED,PROBABLE,RECOVERED,2025-03-13,2025-03-28
CLIN-2025-042,AE,CLIN-2025-042-SITE04-0144,450,Rash,Rash,Skin and subcutaneous tissue disorders,MILD,N,DOSE INCREASED,PROBABLE,NOT RECOVERED,2025-03-12,
CLIN-2025-042,AE,CLIN-2025-042-SITE01-0146,451,Abdominal pain,Abdominal pain,Gastrointestinal disorders,MILD,N,DOSE REDUCED,PROBABLE,RECOVERED,2025-08-04,2025-08-11
CLIN-2025-042,AE,CLIN-2025-042-SITE01-0146,452,Muscle pain,Muscle pain,Musculoskeletal and connective tissue disorders,MILD,N,NONE,PROBABLE,RECOVERED,2025-06-28,2025-07-15
CLIN-2025-042,AE,CLIN-2025-042-SITE01-0146,453,Insomnia,Insomnia,Nervous system disorders,MILD,N,NONE,UNLIKELY,RECOVERING,2025-08-01,
CLIN-2025-042,AE,CLIN-2025-042-SITE01-0146,454,Tachycardia,Tachycardia,Cardiac disorders,MILD,N,DOSE REDUCED,UNLIKELY,RECOVERED,2025-06-28,
CLIN-2025-042,AE,CLIN-2025-042-SITE01-0146,455,Hypertension,Hypertension,Vascular disorders,MILD,N,TREATMENT WITHDRAWN,PROBABLE,RECOVERING,2025-07-23,
CLIN-2025-042,AE,CLIN-2025-042-SITE02-0147,456,Tremor,Tremor,Nervous system disorders,MILD,N,TREATMENT WITHDRAWN,UNLIKELY,RECOVERED,2025-07-13,2025-08-01
CLIN-2025-042,AE,CLIN-2025-042-SITE02-0147,457,Cough,Cough,"Respiratory, thoracic and mediastinal disorders",MODERATE,N,DOSE INCREASED,POSSIBLE,RECOVERED,2025-08-04,2025-08-07
CLIN-2025-042,AE,CLIN-2025-042-SITE03-0148,458,Constipation,Constipation,Gastrointestinal disorders,MILD,Y,DOSE INCREASED,PROBABLE,RECOVERING,2025-05-01,2025-05-09
CLIN-2025-042,AE,CLIN-2025-042-SITE03-0148,459,Vomiting,Vomiting,Gastrointestinal disorders,MODERATE,N,TREATMENT WITHDRAWN,POSSIBLE,RECOVERING,2025-06-08,2025-06-16
CLIN-2025-042,AE,CLIN-2025-042-SITE03-0148,460,Pruritus,Pruritus,Skin and subcutaneous tissue disorders,MILD,N,DOSE INCREASED,UNLIKELY,RECOVERED,2025-05-09,2025-05-10
CLIN-2025-042,AE,CLIN-2025-042-SITE03-0148,461,Cough,Cough,"Respiratory, thoracic and mediastinal disorders",MODERATE,N,DOSE REDUCED,PROBABLE,RECOVERING,2025-06-08,2025-06-17
CLIN-2025-042,AE,CLIN-2025-042-SITE04-0149,462,Cough,Cough,"Respiratory, thoracic and mediastinal disorders",MILD,N,DOSE REDUCED,PROBABLE,UNKNOWN,2025-04-14,
CLIN-2025-042,AE,CLIN-2025-042-SITE04-0149,463,Vomiting,Vomiting,Gastrointestinal disorders,MILD,N,NONE,PROBABLE,RECOVERED,2025-04-20,2025-04-30
CLIN-2025-042,AE,CLIN-2025-042-SITE04-0149,464,Pruritus,Pruritus,Skin and subcutaneous tissue disorders,MILD,N,DOSE INCREASED,POSSIBLE,RECOVERED,2025-04-25,2025-05-07
CLIN-2025-042,AE,CLIN-2025-042-SITE04-0149,465,Dyspnea,Dyspnea,"Respiratory, thoracic and mediastinal disorders",MILD,N,TREATMENT INTERRUPTED,POSSIBLE,RECOVERED,2025-04-28,2025-05-05
CLIN-2025-042,AE,CLIN-2025-042-SITE04-0149,466,Back pain,Back pain,Musculoskeletal and connective tissue disorders,SEVERE,N,DOSE INCREASED,PROBABLE,RECOVERING,2025-04-04,2025-04-20
CLIN-2025-042,AE,CLIN-2025-042-SITE05-0150,467,Vomiting,Vomiting,Gastrointestinal disorders,MILD,N,DOSE INCREASED,POSSIBLE,UNKNOWN,2025-06-18,2025-06-26
CLIN-2025-042,AE,CLIN-2025-042-SITE05-0150,468,Pruritus,Pruritus,Skin and subcutaneous tissue disorders,MODERATE,N,TREATMENT INTERRUPTED,POSSIBLE,RECOVERED,2025-05-28,2025-06-01
CLIN-2025-042,AE,CLIN-2025-042-SITE05-0150,469,Constipation,Constipation,Gastrointestinal disorders,MILD,N,TREATMENT WITHDRAWN,UNLIKELY,RECOVERED,2025-05-17,2025-05-25
CLIN-2025-042,AE,CLIN-2025-042-SITE05-0150,470,Muscle pain,Muscle pain,Musculoskeletal and connective tissue disorders,MILD,Y,DOSE INCREASED,PROBABLE,RECOVERED,2025-06-26,2025-07-09
CLIN-2025-042,AE,CLIN-2025-042-SITE05-0150,471,Insomnia,Insomnia,Nervous system disorders,MILD,N,NONE,POSSIBLE,NOT RECOVERED,2025-06-09,2025-06-25
CLIN-2025-042,AE,CLIN-2025-042-SITE05-0150,472,Hypertension,Hypertension,Vascular disorders,MODERATE,N,DOSE INCREASED,POSSIBLE,NOT RECOVERED,2025-05-19,2025-05-22
CLIN-2025-042,AE,CLIN-2025-042-SITE01-0151,473,Muscle pain,Muscle pain,Musculoskeletal and connective tissue disorders,MILD,N,DOSE INCREASED,UNLIKELY,RECOVERED,2025-07-17,2025-07-29
CLIN-2025-042,AE,CLIN-2025-042-SITE01-0151,474,Back pain,Back pain,Musculoskeletal and connective tissue disorders,MODERATE,N,NONE,PROBABLE,RECOVERED,2025-07-27,2025-08-09
CLIN-2025-042,AE,CLIN-2025-042-SITE01-0151,475,Back pain,Back pain,Musculoskeletal and connective tissue disorders,MILD,N,DOSE INCREASED,PROBABLE,RECOVERED,2025-06-26,2025-07-10
CLIN-2025-042,AE,CLIN-2025-042-SITE01-0151,476,Abdominal pain,Abdominal pain,Gastrointestinal disorders,MODERATE,N,TREATMENT WITHDRAWN,VERY LIKELY,RECOVERED,2025-07-23,
CLIN-2025-042,AE,CLIN-2025-042-SITE01-0151,477,Dizziness,Dizziness,Nervous system disorders,MILD,N,NONE,VERY LIKELY,RECOVERED,2025-07-11,2025-07-27
CLIN-2025-042,AE,CLIN-2025-042-SITE02-0152,478,Dyspnea,Dyspnea,"Respiratory, thoracic and mediastinal disorders",MODERATE,N,DOSE REDUCED,UNLIKELY,RECOVERED,2025-07-30,2025-08-17
CLIN-2025-042,AE,CLIN-2025-042-SITE02-0152,479,Fatigue,Fatigue,General disorders and administration site conditions,MILD,N,TREATMENT INTERRUPTED,POSSIBLE,RECOVERED,2025-07-29,2025-08-08
CLIN-2025-042,AE,CLIN-2025-042-SITE02-0152,480,Cough,Cough,"Respiratory, thoracic and mediastinal disorders",MILD,N,TREATMENT WITHDRAWN,PROBABLE,NOT RECOVERED,2025-07-17,2025-08-03
CLIN-2025-042,AE,CLIN-2025-042-SITE03-0153,481,Muscle pain,Muscle pain,Musculoskeletal and connective tissue disorders,SEVERE,N,NONE,POSSIBLE,RECOVERED,2025-07-04,
CLIN-2025-042,AE,CLIN-2025-042-SITE03-0153,482,Pruritus,Pruritus,Skin and subcutaneous tissue disorders,MILD,N,TREATMENT INTERRUPTED,PROBABLE,RECOVERING,2025-08-09,2025-08-25
CLIN-2025-042,AE,CLIN-2025-042-SITE04-0154,483,Muscle pain,Muscle pain,Musculoskeletal and connective tissue disorders,MODERATE,Y,TREATMENT INTERRUPTED,PROBABLE,RECOVERING,2025-08-12,2025-08-21
CLIN-2025-042,AE,CLIN-2025-042-SITE04-0154,484,Pruritus,Pruritus,Skin and subcutaneous tissue disorders,MILD,N,TREATMENT WITHDRAWN,POSSIBLE,RECOVERED,2025-08-13,
CLIN-2025-042,AE,CLIN-2025-042-SITE04-0154,485,Insomnia,Insomnia,Nervous system disorders,MILD,N,DOSE INCREASED,VERY LIKELY,RECOVERED,2025-07-31,2025-08-12
CLIN-2025-042,AE,CLIN-2025-042-SITE05-0155,486,Hypertension,Hypertension,Vascular disorders,MILD,N,NONE,PROBABLE,RECOVERED,2025-06-23,2025-07-02
CLIN-2025-042,AE,CLIN-2025-042-SITE01-0156,487,Dizziness,Dizziness,Nervous system disorders,SEVERE,N,DOSE INCREASED,VERY LIKELY,RECOVERED,2025-02-20,2025-02-21
CLIN-2025-042,AE,CLIN-2025-042-SITE01-0156,488,Fatigue,Fatigue,General disorders and administration site conditions,MILD,N,DOSE REDUCED,VERY LIKELY,RECOVERED,2025-03-15,2025-03-24
CLIN-2025-042,AE,CLIN-2025-042-SITE01-0156,489,Tremor,Tremor,Nervous system disorders,MILD,N,TREATMENT WITHDRAWN,VERY LIKELY,RECOVERED,2025-02-16,2025-02-24
CLIN-2025-042,AE,CLIN-2025-042-SITE02-0157,490,Pruritus,Pruritus,Skin and subcutaneous tissue disorders,MILD,N,TREATMENT INTERRUPTED,PROBABLE,RECOVERING,2025-03-12,2025-03-19
CLIN-2025-042,AE,CLIN-2025-042-SITE02-0157,491,Constipation,Constipation,Gastrointestinal disorders,MILD,N,TREATMENT WITHDRAWN,UNLIKELY,RECOVERED,2025-03-03,2025-03-14
CLIN-2025-042,AE,CLIN-2025-042-SITE02-0157,492,Fatigue,Fatigue,General disorders and administration site conditions,MILD,N,DOSE REDUCED,PROBABLE,RECOVERED,2025-03-03,2025-03-16
CLIN-2025-042,AE,CLIN-2025-042-SITE02-0157,493,Insomnia,Insomnia,Nervous system disorders,MILD,N,NONE,PROBABLE,RECOVERED,2025-04-02,2025-04-21
CLIN-2025-042,AE,CLIN-2025-042-SITE03-0158,494,Dizziness,Dizziness,Nervous system disorders,MILD,N,DOSE INCREASED,VERY LIKELY,RECOVERED,2025-07-12,
CLIN-2025-042,AE,CLIN-2025-042-SITE03-0158,495,Tachycardia,Tachycardia,Cardiac disorders,SEVERE,Y,TREATMENT WITHDRAWN,UNLIKELY,RECOVERED,2025-06-24,
CLIN-2025-042,AE,CLIN-2025-042-SITE03-0158,496,Tremor,Tremor,Nervous system disorders,MILD,N,DOSE REDUCED,POSSIBLE,RECOVERED,2025-08-02,2025-08-15
CLIN-2025-042,AE,CLIN-2025-042-SITE04-0159,497,Tachycardia,Tachycardia,Cardiac disorders,MODERATE,N,DOSE REDUCED,POSSIBLE,RECOVERED,2025-05-18,2025-05-20
CLIN-2025-042,AE,CLIN-2025-042-SITE04-0159,498,Tremor,Tremor,Nervous system disorders,MODERATE,N,TREATMENT INTERRUPTED,VERY LIKELY,RECOVERED,2025-06-05,2025-06-14
CLIN-2025-042,AE,CLIN-2025-042-SITE04-0159,499,Tremor,Tremor,Nervous system disorders,MILD,N,TREATMENT INTERRUPTED,POSSIBLE,RECOVERING,2025-06-05,2025-06-16
CLIN-2025-042,AE,CLIN-2025-042-SITE05-0160,500,Tremor,Tremor,Nervous system disorders,MODERATE,N,TREATMENT WITHDRAWN,POSSIBLE,NOT RECOVERED,2025-04-04,
CLIN-2025-042,AE,CLIN-2025-042-SITE05-0160,501,Nausea,Nausea,Gastrointestinal disorders,MODERATE,N,TREATMENT INTERRUPTED,PROBABLE,RECOVERED,2025-04-16,2025-04-27
CLIN-2025-042,AE,CLIN-2025-042-SITE05-0160,502,Back pain,Back pain,Musculoskeletal and connective tissue disorders,MODERATE,N,TREATMENT INTERRUPTED,POSSIBLE,UNKNOWN,2025-04-12,2025-04-23
CLIN-2025-042,AE,CLIN-2025-042-SITE05-0160,503,Constipation,Constipation,Gastrointestinal disorders,MILD,N,DOSE REDUCED,PROBABLE,RECOVERED,2025-03-29,2025-04-02
CLIN-2025-042,AE,CLIN-2025-042-SITE01-0161,504,Fever,Fever,General disorders and administration site conditions,MODERATE,N,NONE,UNLIKELY,FATAL,2025-02-13,
CLIN-2025-042,AE,CLIN-2025-042-SITE02-0162,505,Cough,Cough,"Respiratory, thoracic and mediastinal disorders",MILD,N,TREATMENT INTERRUPTED,POSSIBLE,RECOVERED,2025-06-12,2025-06-13
CLIN-2025-042,AE,CLIN-2025-042-SITE02-0162,506,Rash,Rash,Skin and subcutaneous tissue disorders,MILD,N,TREATMENT WITHDRAWN,PROBABLE,RECOVERED,2025-05-17,2025-05-23
CLIN-2025-042,AE,CLIN-2025-042-SITE03-0163,507,Constipation,Constipation,Gastrointestinal disorders,MILD,N,TREATMENT INTERRUPTED,POSSIBLE,RECOVERED,2025-05-28,2025-06-12
CLIN-2025-042,AE,CLIN-2025-042-SITE03-0163,508,Constipation,Constipation,Gastrointestinal disorders,MILD,N,TREATMENT WITHDRAWN,UNLIKELY,RECOVERED,2025-06-06,
CLIN-2025-042,AE,CLIN-2025-042-SITE04-0164,509,Nausea,Nausea,Gastrointestinal disorders,MILD,N,TREATMENT WITHDRAWN,PROBABLE,RECOVERED,2025-06-06,2025-06-13
CLIN-2025-042,AE,CLIN-2025-042-SITE04-0164,510,Hypertension,Hypertension,Vascular disorders,MODERATE,N,TREATMENT WITHDRAWN,POSSIBLE,RECOVERED,2025-07-02,2025-07-09
CLIN-2025-042,AE,CLIN-2025-042-SITE04-0164,511,Cough,Cough,"Respiratory, thoracic and mediastinal disorders",MODERATE,N,NONE,POSSIBLE,RECOVERED,2025-05-24,2025-05-31
CLIN-2025-042,AE,CLIN-2025-042-SITE05-0165,512,Diarrhea,Diarrhea,Gastrointestinal disorders,SEVERE,N,DOSE REDUCED,POSSIBLE,RECOVERED,2025-03-16,2025-03-17
CLIN-2025-042,AE,CLIN-2025-042-SITE05-0165,513,Tachycardia,Tachycardia,Cardiac disorders,MODERATE,Y,DOSE REDUCED,VERY LIKELY,RECOVERED,2025-02-08,2025-02-16
CLIN-2025-042,AE,CLIN-2025-042-SITE01-0166,514,Back pain,Back pain,Musculoskeletal and connective tissue disorders,MILD,Y,DOSE REDUCED,UNLIKELY,RECOVERING,2025-05-04,
CLIN-2025-042,AE,CLIN-2025-042-SITE02-0167,515,Rash,Rash,Skin and subcutaneous tissue disorders,MILD,Y,NONE,VERY LIKELY,RECOVERED,2025-07-06,
CLIN-2025-042,AE,CLIN-2025-042-SITE02-0167,516,Rash,Rash,Skin and subcutaneous tissue disorders,MODERATE,N,DOSE INCREASED,PROBABLE,NOT RECOVERED,2025-06-06,2025-06-20
CLIN-2025-042,AE,CLIN-2025-042-SITE03-0168,517,Hypertension,Hypertension,Vascular disorders,MODERATE,N,DOSE REDUCED,UNLIKELY,NOT RECOVERED,2025-03-18,2025-04-02
CLIN-2025-042,AE,CLIN-2025-042-SITE03-0168,518,Tremor,Tremor,Nervous system disorders,MILD,N,NONE,VERY LIKELY,NOT RECOVERED,2025-03-30,
CLIN-2025-042,AE,CLIN-2025-042-SITE03-0168,519,Fever,Fever,General disorders and administration site conditions,MILD,Y,TREATMENT INTERRUPTED,POSSIBLE,RECOVERED,2025-02-27,2025-03-01
CLIN-2025-042,AE,CLIN-2025-042-SITE03-0168,520,Abdominal pain,Abdominal pain,Gastrointestinal disorders,MILD,N,NONE,UNLIKELY,NOT RECOVERED,2025-03-22,2025-04-04
CLIN-2025-042,AE,CLIN-2025-042-SITE04-0169,521,Hypertension,Hypertension,Vascular disorders,MODERATE,N,TREATMENT INTERRUPTED,POSSIBLE,UNKNOWN,2025-06-26,2025-07-04
CLIN-2025-042,AE,CLIN-2025-042-SITE01-0171,522,Dyspnea,Dyspnea,"Respiratory, thoracic and mediastinal disorders",SEVERE,N,TREATMENT WITHDRAWN,POSSIBLE,RECOVERED,2025-07-28,2025-08-02
CLIN-2025-042,AE,CLIN-2025-042-SITE02-0172,523,Muscle pain,Muscle pain,Musculoskeletal and connective tissue disorders,MODERATE,N,DOSE INCREASED,POSSIBLE,RECOVERED,2025-02-12,2025-02-18
CLIN-2025-042,AE,CLIN-2025-042-SITE02-0172,524,Hypertension,Hypertension,Vascular disorders,MILD,N,NONE,POSSIBLE,RECOVERED,2025-03-18,2025-03-21
CLIN-2025-042,AE,CLIN-2025-042-SITE02-0172,525,Muscle pain,Muscle pain,Musculoskeletal and connective tissue disorders,MODERATE,N,DOSE INCREASED,PROBABLE,NOT RECOVERED,2025-02-28,2025-03-01
CLIN-2025-042,AE,CLIN-2025-042-SITE03-0173,526,Vomiting,Vomiting,Gastrointestinal disorders,MILD,N,DOSE REDUCED,POSSIBLE,RECOVERED,2025-06-01,2025-06-16
CLIN-2025-042,AE,CLIN-2025-042-SITE03-0173,527,Insomnia,Insomnia,Nervous system disorders,MILD,N,TREATMENT WITHDRAWN,PROBABLE,RECOVERED,2025-06-06,2025-06-17
CLIN-2025-042,AE,CLIN-2025-042-SITE04-0174,528,Headache,Headache,Nervous system disorders,MODERATE,N,TREATMENT WITHDRAWN,PROBABLE,RECOVERED,2025-03-13,2025-03-29
CLIN-2025-042,AE,CLIN-2025-042-SITE04-0174,529,Tremor,Tremor,Nervous system disorders,MODERATE,N,DOSE INCREASED,VERY LIKELY,RECOVERING,2025-02-11,2025-02-12
CLIN-2025-042,AE,CLIN-2025-042-SITE04-0174,530,Tachycardia,Tachycardia,Cardiac disorders,MILD,N,TREATMENT INTERRUPTED,VERY LIKELY,RECOVERING,2025-02-04,2025-02-09
CLIN-2025-042,AE,CLIN-2025-042-SITE04-0174,531,Hypertension,Hypertension,Vascular disorders,MILD,N,DOSE REDUCED,POSSIBLE,RECOVERED,2025-02-15,2025-02-24
CLIN-2025-042,AE,CLIN-2025-042-SITE05-0175,532,Tachycardia,Tachycardia,Cardiac disorders,SEVERE,Y,DOSE INCREASED,PROBABLE,RECOVERED,2025-04-27,2025-05-07
CLIN-2025-042,AE,CLIN-2025-042-SITE05-0175,533,Tachycardia,Tachycardia,Cardiac disorders,MODERATE,N,TREATMENT INTERRUPTED,UNLIKELY,NOT RECOVERED,2025-04-13,2025-04-19
CLIN-2025-042,AE,CLIN-2025-042-SITE05-0175,534,Vomiting,Vomiting,Gastrointestinal disorders,MILD,N,DOSE REDUCED,POSSIBLE,RECOVERED,2025-05-12,2025-05-22
CLIN-2025-042,AE,CLIN-2025-042-SITE01-0176,535,Tremor,Tremor,Nervous system disorders,MILD,N,DOSE REDUCED,POSSIBLE,RECOVERED,2025-02-06,2025-02-10
CLIN-2025-042,AE,CLIN-2025-042-SITE01-0176,536,Nausea,Nausea,Gastrointestinal disorders,MODERATE,N,DOSE REDUCED,PROBABLE,UNKNOWN,2025-02-13,2025-03-03
CLIN-2025-042,AE,CLIN-2025-042-SITE01-0176,537,Diarrhea,Diarrhea,Gastrointestinal disorders,MILD,N,TREATMENT WITHDRAWN,PROBABLE,RECOVERING,2025-02-28,2025-03-08
CLIN-2025-042,AE,CLIN-2025-042-SITE02-0177,538,Insomnia,Insomnia,Nervous system disorders,MILD,N,DOSE INCREASED,POSSIBLE,RECOVERED,2025-03-01,2025-03-17
CLIN-2025-042,AE,CLIN-2025-042-SITE02-0177,539,Abdominal pain,Abdominal pain,Gastrointestinal disorders,MILD,N,TREATMENT WITHDRAWN,POSSIBLE,RECOVERED,2025-02-18,2025-02-19
CLIN-2025-042,AE,CLIN-2025-042-SITE02-0177,540,Fever,Fever,General disorders and administration site conditions,MILD,N,TREATMENT WITHDRAWN,PROBABLE,RECOVERED,2025-03-12,2025-03-30
CLIN-2025-042,AE,CLIN-2025-042-SITE03-0178,541,Dizziness,Dizziness,Nervous system disorders,MILD,N,DOSE INCREASED,UNLIKELY,RECOVERED,2025-03-18,2025-04-04
CLIN-2025-042,AE,CLIN-2025-042-SITE03-0178,542,Back pain,Back pain,Musculoskeletal and connective tissue disorders,MILD,N,TREATMENT INTERRUPTED,VERY LIKELY,RECOVERED,2025-02-13,2025-02-16
CLIN-2025-042,AE,CLIN-2025-042-SITE03-0178,543,Cough,Cough,"Respiratory, thoracic and mediastinal disorders",MODERATE,N,TREATMENT INTERRUPTED,VERY LIKELY,NOT RECOVERED,2025-02-13,
CLIN-2025-042,AE,CLIN-2025-042-SITE04-0179,544,Dyspnea,Dyspnea,"Respiratory, thoracic and mediastinal disorders",MILD,N,TREATMENT INTERRUPTED,POSSIBLE,RECOVERED,2025-06-19,2025-07-07
CLIN-2025-042,AE,CLIN-2025-042-SITE04-0179,545,Cough,Cough,"Respiratory, thoracic and mediastinal disorders",MILD,N,DOSE REDUCED,UNLIKELY,UNKNOWN,2025-07-01,2025-07-07
CLIN-2025-042,AE,CLIN-2025-042-SITE04-0179,546,Fatigue,Fatigue,General disorders and administration site conditions,MILD,N,TREATMENT WITHDRAWN,PROBABLE,RECOVERING,2025-07-12,2025-07-14
CLIN-2025-042,AE,CLIN-2025-042-SITE04-0179,547,Tremor,Tremor,Nervous system disorders,MILD,N,DOSE INCREASED,PROBABLE,RECOVERED,2025-06-22,2025-06-27
CLIN-2025-042,AE,CLIN-2025-042-SITE04-0179,548,Nausea,Nausea,Gastrointestinal disorders,MILD,N,NONE,VERY LIKELY,RECOVERING,2025-06-11,
CLIN-2025-042,AE,CLIN-2025-042-SITE04-0179,549,Pruritus,Pruritus,Skin and subcutaneous tissue disorders,MILD,N,TREATMENT WITHDRAWN,UNLIKELY,RECOVERING,2025-06-10,2025-06-13
CLIN-2025-042,AE,CLIN-2025-042-SITE05-0180,550,Fatigue,Fatigue,General disorders and administration site conditions,MILD,N,DOSE REDUCED,PROBABLE,RECOVERING,2025-02-13,2025-03-04
CLIN-2025-042,AE,CLIN-2025-042-SITE05-0180,551,Back pain,Back pain,Musculoskeletal and connective tissue disorders,MILD,N,TREATMENT INTERRUPTED,UNLIKELY,NOT RECOVERED,2025-02-17,
CLIN-2025-042,AE,CLIN-2025-042-SITE05-0180,552,Diarrhea,Diarrhea,Gastrointestinal disorders,MODERATE,N,DOSE INCREASED,POSSIBLE,RECOVERED,2025-03-11,
CLIN-2025-042,AE,CLIN-2025-042-SITE01-0181,553,Muscle pain,Muscle pain,Musculoskeletal and connective tissue disorders,MODERATE,N,TREATMENT INTERRUPTED,POSSIBLE,RECOVERED,2025-06-23,2025-06-26
CLIN-2025-042,AE,CLIN-2025-042-SITE01-0181,554,Tachycardia,Tachycardia,Cardiac disorders,MILD,N,DOSE INCREASED,UNLIKELY,RECOVERING,2025-07-22,2025-08-01
CLIN-2025-042,AE,CLIN-2025-042-SITE01-0181,555,Fatigue,Fatigue,General disorders and administration site conditions,MILD,N,DOSE INCREASED,VERY LIKELY,RECOVERED,2025-06-24,
CLIN-2025-042,AE,CLIN-2025-042-SITE02-0182,556,Cough,Cough,"Respiratory, thoracic and mediastinal disorders",MODERATE,N,TREATMENT INTERRUPTED,UNLIKELY,RECOVERED,2025-04-19,2025-05-05
CLIN-2025-042,AE,CLIN-2025-042-SITE02-0182,557,Hypertension,Hypertension,Vascular disorders,MODERATE,N,TREATMENT INTERRUPTED,POSSIBLE,NOT RECOVERED,2025-04-29,2025-05-13
CLIN-2025-042,AE,CLIN-2025-042-SITE02-0182,558,Rash,Rash,Skin and subcutaneous tissue disorders,MILD,N,TREATMENT INTERRUPTED,PROBABLE,RECOVERED,2025-05-07,2025-05-22
CLIN-2025-042,AE,CLIN-2025-042-SITE03-0183,559,Fever,Fever,General disorders and administration site conditions,MILD,N,NONE,UNLIKELY,RECOVERED,2025-05-28,2025-06-11
CLIN-2025-042,AE,CLIN-2025-042-SITE03-0183,560,Hypertension,Hypertension,Vascular disorders,MODERATE,N,TREATMENT WITHDRAWN,PROBABLE,UNKNOWN,2025-06-20,2025-07-07
CLIN-2025-042,AE,CLIN-2025-042-SITE03-0183,561,Fever,Fever,General disorders and administration site conditions,MILD,N,TREATMENT WITHDRAWN,PROBABLE,RECOVERED,2025-06-30,
CLIN-2025-042,AE,CLIN-2025-042-SITE03-0183,562,Dizziness,Dizziness,Nervous system disorders,MODERATE,N,DOSE REDUCED,PROBABLE,RECOVERING,2025-06-23,
CLIN-2025-042,AE,CLIN-2025-042-SITE03-0183,563,Hypertension,Hypertension,Vascular disorders,MILD,N,NONE,PROBABLE,RECOVERED,2025-06-27,2025-07-09
CLIN-2025-042,AE,CLIN-2025-042-SITE04-0184,564,Constipation,Constipation,Gastrointestinal disorders,MILD,N,DOSE REDUCED,PROBABLE,RECOVERED,2025-03-10,2025-03-15
CLIN-2025-042,AE,CLIN-2025-042-SITE05-0185,565,Dyspnea,Dyspnea,"Respiratory, thoracic and mediastinal disorders",MODERATE,N,DOSE REDUCED,PROBABLE,RECOVERED,2025-04-25,
CLIN-2025-042,AE,CLIN-2025-042-SITE05-0185,566,Fatigue,Fatigue,General disorders and administration site conditions,MILD,N,DOSE INCREASED,POSSIBLE,RECOVERED,2025-05-14,
CLIN-2025-042,AE,CLIN-2025-042-SITE05-0185,567,Fever,Fever,General disorders and administration site conditions,MODERATE,N,TREATMENT WITHDRAWN,UNLIKELY,RECOVERED,2025-06-03,2025-06-09
CLIN-2025-042,AE,CLIN-2025-042-SITE05-0185,568,Nausea,Nausea,Gastrointestinal disorders,MILD,N,TREATMENT WITHDRAWN,VERY LIKELY,RECOVERED,2025-04-23,2025-05-09
CLIN-2025-042,AE,CLIN-2025-042-SITE01-0186,569,Constipation,Constipation,Gastrointestinal disorders,MILD,N,NONE,PROBABLE,RECOVERED,2025-03-16,
CLIN-2025-042,AE,CLIN-2025-042-SITE01-0186,570,Dyspnea,Dyspnea,"Respiratory, thoracic and mediastinal disorders",MILD,N,TREATMENT WITHDRAWN,UNLIKELY,RECOVERED,2025-04-26,2025-05-11
CLIN-2025-042,AE,CLIN-2025-042-SITE01-0186,571,Nausea,Nausea,Gastrointestinal disorders,MILD,N,TREATMENT INTERRUPTED,PROBABLE,RECOVERED,2025-03-29,2025-04-11
CLIN-2025-042,AE,CLIN-2025-042-SITE01-0186,572,Abdominal pain,Abdominal pain,Gastrointestinal disorders,MILD,N,DOSE INCREASED,POSSIBLE,NOT RECOVERED,2025-03-23,2025-04-09
CLIN-2025-042,AE,CLIN-2025-042-SITE01-0186,573,Tachycardia,Tachycardia,Cardiac disorders,SEVERE,N,DOSE REDUCED,UNLIKELY,NOT RECOVERED,2025-04-11,
CLIN-2025-042,AE,CLIN-2025-042-SITE02-0187,574,Rash,Rash,Skin and subcutaneous tissue disorders,MILD,N,NONE,PROBABLE,RECOVERED,2025-06-20,2025-07-06
CLIN-2025-042,AE,CLIN-2025-042-SITE02-0187,575,Tachycardia,Tachycardia,Cardiac disorders,MILD,N,NONE,POSSIBLE,RECOVERED,2025-07-01,2025-07-18
CLIN-2025-042,AE,CLIN-2025-042-SITE03-0188,576,Dyspnea,Dyspnea,"Respiratory, thoracic and mediastinal disorders",MILD,N,TREATMENT WITHDRAWN,PROBABLE,RECOVERING,2025-07-12,2025-07-18
CLIN-2025-042,AE,CLIN-2025-042-SITE03-0188,577,Back pain,Back pain,Musculoskeletal and connective tissue disorders,SEVERE,N,NONE,VERY LIKELY,RECOVERED,2025-05-31,
CLIN-2025-042,AE,CLIN-2025-042-SITE03-0188,578,Cough,Cough,"Respiratory, thoracic and mediastinal disorders",MODERATE,N,DOSE INCREASED,PROBABLE,RECOVERED,2025-06-13,2025-06-26
CLIN-2025-042,AE,CLIN-2025-042-SITE04-0189,579,Cough,Cough,"Respiratory, thoracic and mediastinal disorders",MILD,N,TREATMENT INTERRUPTED,UNLIKELY,RECOVERED,2025-05-04,2025-05-22
CLIN-2025-042,AE,CLIN-2025-042-SITE04-0189,580,Muscle pain,Muscle pain,Musculoskeletal and connective tissue disorders,MODERATE,N,DOSE INCREASED,POSSIBLE,RECOVERED,2025-04-24,2025-05-11
CLIN-2025-042,AE,CLIN-2025-042-SITE04-0189,581,Headache,Headache,Nervous system disorders,MILD,N,TREATMENT INTERRUPTED,PROBABLE,RECOVERED,2025-04-19,
CLIN-2025-042,AE,CLIN-2025-042-SITE05-0190,582,Headache,Headache,Nervous system disorders,MILD,N,DOSE INCREASED,UNLIKELY,RECOVERED,2025-07-07,2025-07-10
CLIN-2025-042,AE,CLIN-2025-042-SITE05-0190,583,Tremor,Tremor,Nervous system disorders,MODERATE,N,NONE,UNLIKELY,RECOVERED,2025-06-08,2025-06-12
CLIN-2025-042,AE,CLIN-2025-042-SITE05-0190,584,Fever,Fever,General disorders and administration site conditions,MILD,N,TREATMENT WITHDRAWN,VERY LIKELY,RECOVERED,2025-06-04,2025-06-12
CLIN-2025-042,AE,CLIN-2025-042-SITE05-0190,585,Rash,Rash,Skin and subcutaneous tissue disorders,SEVERE,N,NONE,POSSIBLE,RECOVERED,2025-06-17,2025-07-05
CLIN-2025-042,AE,CLIN-2025-042-SITE05-0190,586,Headache,Headache,Nervous system disorders,MILD,Y,DOSE INCREASED,POSSIBLE,RECOVERED,2025-07-07,2025-07-24
CLIN-2025-042,AE,CLIN-2025-042-SITE05-0190,587,Pruritus,Pruritus,Skin and subcutaneous tissue disorders,MILD,N,NONE,POSSIBLE,RECOVERED,2025-06-19,2025-07-04
CLIN-2025-042,AE,CLIN-2025-042-SITE01-0191,588,Back pain,Back pain,Musculoskeletal and connective tissue disorders,SEVERE,N,NONE,VERY LIKELY,RECOVERED,2025-07-05,
CLIN-2025-042,AE,CLIN-2025-042-SITE01-0191,589,Back pain,Back pain,Musculoskeletal and connective tissue disorders,MODERATE,N,DOSE INCREASED,PROBABLE,RECOVERED,2025-07-22,2025-08-07
CLIN-2025-042,AE,CLIN-2025-042-SITE02-0192,590,Abdominal pain,Abdominal pain,Gastrointestinal disorders,MILD,N,DOSE REDUCED,POSSIBLE,FATAL,2025-02-03,2025-02-06
CLIN-2025-042,AE,CLIN-2025-042-SITE02-0192,591,Hypertension,Hypertension,Vascular disorders,SEVERE,N,NONE,UNLIKELY,RECOVERED,2025-02-15,2025-03-02
CLIN-2025-042,AE,CLIN-2025-042-SITE03-0193,592,Dizziness,Dizziness,Nervous system disorders,MILD,N,NONE,UNLIKELY,RECOVERED,2025-07-23,2025-08-08
CLIN-2025-042,AE,CLIN-2025-042-SITE03-0193,593,Tremor,Tremor,Nervous system disorders,MILD,N,DOSE INCREASED,POSSIBLE,RECOVERED,2025-07-01,2025-07-10
CLIN-2025-042,AE,CLIN-2025-042-SITE03-0193,594,Pruritus,Pruritus,Skin and subcutaneous tissue disorders,MILD,N,TREATMENT INTERRUPTED,UNLIKELY,RECOVERED,2025-07-04,2025-07-12
CLIN-2025-042,AE,CLIN-2025-042-SITE03-0193,595,Back pain,Back pain,Musculoskeletal and connective tissue disorders,MILD,N,DOSE REDUCED,POSSIBLE,RECOVERED,2025-06-23,2025-07-03
CLIN-2025-042,AE,CLIN-2025-042-SITE03-0193,596,Pruritus,Pruritus,Skin and subcutaneous tissue disorders,SEVERE,N,TREATMENT WITHDRAWN,POSSIBLE,RECOVERED,2025-06-26,2025-07-11
CLIN-2025-042,AE,CLIN-2025-042-SITE04-0194,597,Pruritus,Pruritus,Skin and subcutaneous tissue disorders,SEVERE,N,DOSE REDUCED,PROBABLE,RECOVERED,2025-03-31,2025-04-15
CLIN-2025-042,AE,CLIN-2025-042-SITE04-0194,598,Tachycardia,Tachycardia,Cardiac disorders,SEVERE,N,DOSE INCREASED,PROBABLE,RECOVERED,2025-04-21,2025-04-25
CLIN-2025-042,AE,CLIN-2025-042-SITE04-0194,599,Back pain,Back pain,Musculoskeletal and connective tissue disorders,MILD,N,DOSE REDUCED,PROBABLE,RECOVERED,2025-04-13,2025-04-16
CLIN-2025-042,AE,CLIN-2025-042-SITE04-0194,600,Diarrhea,Diarrhea,Gastrointestinal disorders,MODERATE,N,DOSE INCREASED,POSSIBLE,RECOVERED,2025-03-17,2025-03-29
CLIN-2025-042,AE,CLIN-2025-042-SITE05-0195,601,Fatigue,Fatigue,General disorders and administration site conditions,SEVERE,N,TREATMENT WITHDRAWN,POSSIBLE,RECOVERED,2025-06-15,2025-06-25
CLIN-2025-042,AE,CLIN-2025-042-SITE05-0195,602,Fever,Fever,General disorders and administration site conditions,MILD,N,TREATMENT INTERRUPTED,VERY LIKELY,NOT RECOVERED,2025-05-21,2025-05-30
CLIN-2025-042,AE,CLIN-2025-042-SITE01-0196,603,Dyspnea,Dyspnea,"Respiratory, thoracic and mediastinal disorders",MILD,N,NONE,PROBABLE,RECOVERING,2025-02-04,2025-02-17
CLIN-2025-042,AE,CLIN-2025-042-SITE01-0196,604,Tachycardia,Tachycardia,Cardiac disorders,MODERATE,N,TREATMENT INTERRUPTED,POSSIBLE,NOT RECOVERED,2025-02-03,2025-02-10
CLIN-2025-042,AE,CLIN-2025-042-SITE02-0197,605,Muscle pain,Muscle pain,Musculoskeletal and connective tissue disorders,MILD,N,DOSE REDUCED,POSSIBLE,RECOVERED,2025-02-06,2025-02-23
CLIN-2025-042,AE,CLIN-2025-042-SITE02-0197,606,Fatigue,Fatigue,General disorders and administration site conditions,MODERATE,N,TREATMENT WITHDRAWN,POSSIBLE,NOT RECOVERED,2025-01-31,2025-02-19
CLIN-2025-042,AE,CLIN-2025-042-SITE02-0197,607,Pruritus,Pruritus,Skin and subcutaneous tissue disorders,MODERATE,N,TREATMENT WITHDRAWN,POSSIBLE,RECOVERED,2025-01-18,
CLIN-2025-042,AE,CLIN-2025-042-SITE03-0198,608,Insomnia,Insomnia,Nervous system disorders,MILD,N,TREATMENT WITHDRAWN,POSSIBLE,RECOVERED,2025-06-02,2025-06-09
CLIN-2025-042,AE,CLIN-2025-042-SITE03-0198,609,Dizziness,Dizziness,Nervous system disorders,MODERATE,N,TREATMENT WITHDRAWN,POSSIBLE,RECOVERING,2025-06-10,2025-06-15
CLIN-2025-042,AE,CLIN-2025-042-SITE03-0198,610,Constipation,Constipation,Gastrointestinal disorders,MILD,N,TREATMENT INTERRUPTED,POSSIBLE,RECOVERING,2025-06-11,2025-06-16
CLIN-2025-042,AE,CLIN-2025-042-SITE03-0198,611,Diarrhea,Diarrhea,Gastrointestinal disorders,MODERATE,N,TREATMENT WITHDRAWN,PROBABLE,RECOVERED,2025-06-04,2025-06-10
CLIN-2025-042,AE,CLIN-2025-042-SITE03-0198,612,Dizziness,Dizziness,Nervous system disorders,MODERATE,N,DOSE REDUCED,POSSIBLE,RECOVERED,2025-05-28,2025-06-06
CLIN-2025-042,AE,CLIN-2025-042-SITE04-0199,613,Fatigue,Fatigue,General disorders and administration site conditions,MILD,N,DOSE INCREASED,POSSIBLE,UNKNOWN,2025-03-31,2025-04-09
CLIN-2025-042,AE,CLIN-2025-042-SITE04-0199,614,Insomnia,Insomnia,Nervous system disorders,MODERATE,N,DOSE INCREASED,POSSIBLE,RECOVERED,2025-02-27,2025-03-06
CLIN-2025-042,AE,CLIN-2025-042-SITE05-0200,615,Tachycardia,Tachycardia,Cardiac disorders,MILD,N,TREATMENT INTERRUPTED,POSSIBLE,RECOVERED,2025-04-24,2025-05-06
CLIN-2025-042,AE,CLIN-2025-042-SITE05-0200,616,Insomnia,Insomnia,Nervous system disorders,SEVERE,N,TREATMENT INTERRUPTED,PROBABLE,RECOVERED,2025-05-07,2025-05-08
CLIN-2025-042,AE,CLIN-2025-042-SITE02-0202,617,Back pain,Back pain,Musculoskeletal and connective tissue disorders,MILD,N,NONE,VERY LIKELY,RECOVERED,2025-05-08,2025-05-09
CLIN-2025-042,AE,CLIN-2025-042-SITE02-0202,618,Muscle pain,Muscle pain,Musculoskeletal and connective tissue disorders,MILD,N,NONE,POSSIBLE,RECOVERING,2025-05-08,2025-05-18
CLIN-2025-042,AE,CLIN-2025-042-SITE03-0203,619,Dizziness,Dizziness,Nervous system disorders,MILD,Y,DOSE REDUCED,VERY LIKELY,RECOVERING,2025-07-11,2025-07-15
CLIN-2025-042,AE,CLIN-2025-042-SITE04-0204,620,Abdominal pain,Abdominal pain,Gastrointestinal disorders,MILD,Y,TREATMENT INTERRUPTED,UNLIKELY,UNKNOWN,2025-02-25,2025-03-11
CLIN-2025-042,AE,CLIN-2025-042-SITE04-0204,621,Back pain,Back pain,Musculoskeletal and connective tissue disorders,MODERATE,N,DOSE INCREASED,PROBABLE,RECOVERED,2025-02-10,
CLIN-2025-042,AE,CLIN-2025-042-SITE04-0204,622,Abdominal pain,Abdominal pain,Gastrointestinal disorders,MODERATE,Y,DOSE INCREASED,UNLIKELY,RECOVERED,2025-02-10,
CLIN-2025-042,AE,CLIN-2025-042-SITE04-0204,623,Abdominal pain,Abdominal pain,Gastrointestinal disorders,MODERATE,N,TREATMENT WITHDRAWN,UNLIKELY,RECOVERED,2025-02-16,2025-02-22
CLIN-2025-042,AE,CLIN-2025-042-SITE04-0204,624,Rash,Rash,Skin and subcutaneous tissue disorders,MILD,N,TREATMENT INTERRUPTED,VERY LIKELY,RECOVERING,2025-03-18,2025-03-23
CLIN-2025-042,AE,CLIN-2025-042-SITE04-0204,625,Constipation,Constipation,Gastrointestinal disorders,SEVERE,N,TREATMENT INTERRUPTED,POSSIBLE,RECOVERING,2025-03-20,2025-03-22
CLIN-2025-042,AE,CLIN-2025-042-SITE04-0204,626,Back pain,Back pain,Musculoskeletal and connective tissue disorders,MILD,N,NONE,PROBABLE,RECOVERED,2025-03-04,
CLIN-2025-042,AE,CLIN-2025-042-SITE05-0205,627,Vomiting,Vomiting,Gastrointestinal disorders,MILD,N,DOSE REDUCED,PROBABLE,RECOVERING,2025-03-05,2025-03-18
CLIN-2025-042,AE,CLIN-2025-042-SITE05-0205,628,Insomnia,Insomnia,Nervous system disorders,MODERATE,Y,TREATMENT INTERRUPTED,POSSIBLE,RECOVERED,2025-02-11,2025-02-17
CLIN-2025-042,AE,CLIN-2025-042-SITE05-0205,629,Fatigue,Fatigue,General disorders and administration site conditions,MILD,N,NONE,UNLIKELY,RECOVERING,2025-02-01,2025-02-03
CLIN-2025-042,AE,CLIN-2025-042-SITE05-0205,630,Muscle pain,Muscle pain,Musculoskeletal and connective tissue disorders,SEVERE,N,DOSE REDUCED,POSSIBLE,RECOVERED,2025-02-07,2025-02-08
CLIN-2025-042,AE,CLIN-2025-042-SITE01-0206,631,Nausea,Nausea,Gastrointestinal disorders,MODERATE,N,TREATMENT INTERRUPTED,PROBABLE,RECOVERED,2025-05-25,2025-06-09
CLIN-2025-042,AE,CLIN-2025-042-SITE01-0206,632,Back pain,Back pain,Musculoskeletal and connective tissue disorders,MODERATE,N,NONE,UNLIKELY,RECOVERED,2025-04-24,
CLIN-2025-042,AE,CLIN-2025-042-SITE02-0207,633,Dizziness,Dizziness,Nervous system disorders,MILD,N,DOSE REDUCED,POSSIBLE,RECOVERED,2025-07-30,2025-08-10
CLIN-2025-042,AE,CLIN-2025-042-SITE03-0208,634,Diarrhea,Diarrhea,Gastrointestinal disorders,MILD,N,TREATMENT INTERRUPTED,PROBABLE,RECOVERED,2025-02-03,2025-02-17
CLIN-2025-042,AE,CLIN-2025-042-SITE03-0208,635,Rash,Rash,Skin and subcutaneous tissue disorders,MILD,N,NONE,POSSIBLE,RECOVERED,2025-02-04,2025-02-23
CLIN-2025-042,AE,CLIN-2025-042-SITE03-0208,636,Dizziness,Dizziness,Nervous system disorders,MODERATE,N,NONE,VERY LIKELY,RECOVERED,2025-02-17,2025-03-03
CLIN-2025-042,AE,CLIN-2025-042-SITE03-0208,637,Fever,Fever,General disorders and administration site conditions,MILD,N,NONE,POSSIBLE,RECOVERING,2025-03-11,2025-03-28
CLIN-2025-042,AE,CLIN-2025-042-SITE03-0208,638,Muscle pain,Muscle pain,Musculoskeletal and connective tissue disorders,MODERATE,N,TREATMENT WITHDRAWN,POSSIBLE,RECOVERED,2025-02-17,2025-02-22
CLIN-2025-042,AE,CLIN-2025-042-SITE04-0209,639,Pruritus,Pruritus,Skin and subcutaneous tissue disorders,MODERATE,N,DOSE INCREASED,UNLIKELY,RECOVERED,2025-05-21,2025-05-27
CLIN-2025-042,AE,CLIN-2025-042-SITE04-0209,640,Muscle pain,Muscle pain,Musculoskeletal and connective tissue disorders,MODERATE,N,TREATMENT INTERRUPTED,UNLIKELY,RECOVERING,2025-05-29,2025-06-07
CLIN-2025-042,AE,CLIN-2025-042-SITE04-0209,641,Back pain,Back pain,Musculoskeletal and connective tissue disorders,MILD,N,NONE,POSSIBLE,UNKNOWN,2025-05-22,2025-05-23
CLIN-2025-042,AE,CLIN-2025-042-SITE04-0209,642,Tachycardia,Tachycardia,Cardiac disorders,MILD,N,TREATMENT WITHDRAWN,UNLIKELY,NOT RECOVERED,2025-06-11,2025-06-14
CLIN-2025-042,AE,CLIN-2025-042-SITE04-0209,643,Muscle pain,Muscle pain,Musculoskeletal and connective tissue disorders,MODERATE,N,TREATMENT WITHDRAWN,UNLIKELY,RECOVERING,2025-05-25,
CLIN-2025-042,AE,CLIN-2025-042-SITE04-0209,644,Cough,Cough,"Respiratory, thoracic and mediastinal disorders",MILD,N,TREATMENT WITHDRAWN,POSSIBLE,RECOVERED,2025-05-12,2025-05-28
CLIN-2025-042,AE,CLIN-2025-042-SITE05-0210,645,Hypertension,Hypertension,Vascular disorders,MODERATE,N,TREATMENT INTERRUPTED,PROBABLE,RECOVERED,2025-05-09,
CLIN-2025-042,AE,CLIN-2025-042-SITE05-0210,646,Tachycardia,Tachycardia,Cardiac disorders,MODERATE,N,TREATMENT INTERRUPTED,VERY LIKELY,RECOVERED,2025-06-15,2025-06-22
CLIN-2025-042,AE,CLIN-2025-042-SITE05-0210,647,Fatigue,Fatigue,General disorders and administration site conditions,SEVERE,N,NONE,POSSIBLE,RECOVERING,2025-06-17,2025-07-01
CLIN-2025-042,AE,CLIN-2025-042-SITE05-0210,648,Diarrhea,Diarrhea,Gastrointestinal disorders,MODERATE,Y,NONE,PROBABLE,RECOVERED,2025-05-15,2025-05-27
CLIN-2025-042,AE,CLIN-2025-042-SITE01-0211,649,Dyspnea,Dyspnea,"Respiratory, thoracic and mediastinal disorders",SEVERE,N,TREATMENT WITHDRAWN,POSSIBLE,RECOVERED,2025-03-29,2025-04-13
CLIN-2025-042,AE,CLIN-2025-042-SITE01-0211,650,Insomnia,Insomnia,Nervous system disorders,MILD,N,NONE,POSSIBLE,RECOVERED,2025-04-15,2025-04-29
CLIN-2025-042,AE,CLIN-2025-042-SITE01-0211,651,Nausea,Nausea,Gastrointestinal disorders,MODERATE,N,DOSE INCREASED,UNLIKELY,RECOVERING,2025-04-19,2025-04-20
CLIN-2025-042,AE,CLIN-2025-042-SITE01-0211,652,Cough,Cough,"Respiratory, thoracic and mediastinal disorders",MODERATE,Y,TREATMENT WITHDRAWN,UNLIKELY,RECOVERING,2025-04-19,2025-04-28
CLIN-2025-042,AE,CLIN-2025-042-SITE01-0211,653,Vomiting,Vomiting,Gastrointestinal disorders,MILD,N,TREATMENT INTERRUPTED,UNLIKELY,RECOVERED,2025-03-29,2025-04-12
CLIN-2025-042,AE,CLIN-2025-042-SITE02-0212,654,Constipation,Constipation,Gastrointestinal disorders,MILD,N,TREATMENT INTERRUPTED,VERY LIKELY,NOT RECOVERED,2025-02-08,
CLIN-2025-042,AE,CLIN-2025-042-SITE02-0212,655,Hypertension,Hypertension,Vascular disorders,MILD,N,TREATMENT INTERRUPTED,POSSIBLE,RECOVERED,2025-03-14,2025-03-30
CLIN-2025-042,AE,CLIN-2025-042-SITE03-0213,656,Vomiting,Vomiting,Gastrointestinal disorders,MILD,N,DOSE INCREASED,UNLIKELY,RECOVERED,2025-07-30,2025-08-01
CLIN-2025-042,AE,CLIN-2025-042-SITE03-0213,657,Constipation,Constipation,Gastrointestinal disorders,MILD,Y,NONE,POSSIBLE,RECOVERED,2025-08-03,2025-08-18
CLIN-2025-042,AE,CLIN-2025-042-SITE04-0214,658,Abdominal pain,Abdominal pain,Gastrointestinal disorders,MILD,N,TREATMENT INTERRUPTED,UNLIKELY,RECOVERED,2025-03-01,2025-03-10
CLIN-2025-042,AE,CLIN-2025-042-SITE04-0214,659,Back pain,Back pain,Musculoskeletal and connective tissue disorders,MILD,N,DOSE REDUCED,VERY LIKELY,RECOVERED,2025-03-02,
CLIN-2025-042,AE,CLIN-2025-042-SITE04-0214,660,Tachycardia,Tachycardia,Cardiac disorders,MODERATE,N,DOSE INCREASED,POSSIBLE,NOT RECOVERED,2025-03-07,2025-03-16
CLIN-2025-042,AE,CLIN-2025-042-SITE04-0214,661,Constipation,Constipation,Gastrointestinal disorders,MODERATE,N,TREATMENT WITHDRAWN,PROBABLE,UNKNOWN,2025-02-23,2025-03-03
CLIN-2025-042,AE,CLIN-2025-042-SITE04-0214,662,Vomiting,Vomiting,Gastrointestinal disorders,MODERATE,N,TREATMENT WITHDRAWN,PROBABLE,RECOVERED,2025-02-14,2025-03-04
CLIN-2025-042,AE,CLIN-2025-042-SITE05-0215,663,Back pain,Back pain,Musculoskeletal and connective tissue disorders,MILD,N,NONE,PROBABLE,RECOVERED,2025-04-16,2025-04-21
CLIN-2025-042,AE,CLIN-2025-042-SITE05-0215,664,Constipation,Constipation,Gastrointestinal disorders,MODERATE,N,TREATMENT INTERRUPTED,POSSIBLE,RECOVERING,2025-05-05,2025-05-06
CLIN-2025-042,AE,CLIN-2025-042-SITE02-0217,665,Tachycardia,Tachycardia,Cardiac disorders,MILD,N,DOSE REDUCED,PROBABLE,UNKNOWN,2025-07-10,2025-07-28
CLIN-2025-042,AE,CLIN-2025-042-SITE02-0217,666,Headache,Headache,Nervous system disorders,MILD,N,TREATMENT INTERRUPTED,PROBABLE,RECOVERED,2025-07-28,
CLIN-2025-042,AE,CLIN-2025-042-SITE02-0217,667,Muscle pain,Muscle pain,Musculoskeletal and connective tissue disorders,MILD,N,TREATMENT WITHDRAWN,PROBABLE,RECOVERED,2025-07-15,
CLIN-2025-042,AE,CLIN-2025-042-SITE03-0218,668,Rash,Rash,Skin and subcutaneous tissue disorders,MILD,N,TREATMENT INTERRUPTED,PROBABLE,RECOVERING,2025-05-24,2025-06-02
CLIN-2025-042,AE,CLIN-2025-042-SITE04-0219,669,Fever,Fever,General disorders and administration site conditions,MODERATE,N,NONE,UNLIKELY,RECOVERED,2025-03-20,2025-04-03
CLIN-2025-042,AE,CLIN-2025-042-SITE04-0219,670,Pruritus,Pruritus,Skin and subcutaneous tissue disorders,MILD,N,TREATMENT INTERRUPTED,POSSIBLE,RECOVERING,2025-04-03,2025-04-20
CLIN-2025-042,AE,CLIN-2025-042-SITE04-0219,671,Diarrhea,Diarrhea,Gastrointestinal disorders,MODERATE,N,DOSE INCREASED,POSSIBLE,RECOVERED,2025-03-10,2025-03-19
CLIN-2025-042,AE,CLIN-2025-042-SITE04-0219,672,Hypertension,Hypertension,Vascular disorders,MILD,N,TREATMENT INTERRUPTED,VERY LIKELY,RECOVERED,2025-04-16,
CLIN-2025-042,AE,CLIN-2025-042-SITE04-0219,673,Dyspnea,Dyspnea,"Respiratory, thoracic and mediastinal disorders",MILD,N,TREATMENT INTERRUPTED,UNLIKELY,RECOVERING,2025-04-12,2025-04-29
CLIN-2025-042,AE,CLIN-2025-042-SITE05-0220,674,Headache,Headache,Nervous system disorders,MILD,N,DOSE REDUCED,PROBABLE,RECOVERED,2025-05-15,2025-05-17
CLIN-2025-042,AE,CLIN-2025-042-SITE05-0220,675,Tachycardia,Tachycardia,Cardiac disorders,MILD,N,TREATMENT INTERRUPTED,POSSIBLE,NOT RECOVERED,2025-05-30,2025-06-08
CLIN-2025-042,AE,CLIN-2025-042-SITE05-0220,676,Dizziness,Dizziness,Nervous system disorders,MILD,N,DOSE REDUCED,UNLIKELY,RECOVERED,2025-06-01,2025-06-02
CLIN-2025-042,AE,CLIN-2025-042-SITE05-0220,677,Muscle pain,Muscle pain,Musculoskeletal and connective tissue disorders,MILD,N,TREATMENT WITHDRAWN,PROBABLE,RECOVERED,2025-05-23,2025-05-27
CLIN-2025-042,AE,CLIN-2025-042-SITE01-0221,678,Fatigue,Fatigue,General disorders and administration site conditions,MILD,N,DOSE REDUCED,PROBABLE,RECOVERED,2025-06-01,2025-06-02
CLIN-2025-042,AE,CLIN-2025-042-SITE01-0221,679,Diarrhea,Diarrhea,Gastrointestinal disorders,MILD,N,DOSE INCREASED,POSSIBLE,RECOVERED,2025-06-02,2025-06-21
CLIN-2025-042,AE,CLIN-2025-042-SITE02-0222,680,Abdominal pain,Abdominal pain,Gastrointestinal disorders,MILD,N,TREATMENT WITHDRAWN,PROBABLE,RECOVERED,2025-05-01,2025-05-11
CLIN-2025-042,AE,CLIN-2025-042-SITE02-0222,681,Tachycardia,Tachycardia,Cardiac disorders,MILD,N,NONE,VERY LIKELY,RECOVERED,2025-05-10,2025-05-27
CLIN-2025-042,AE,CLIN-2025-042-SITE02-0222,682,Nausea,Nausea,Gastrointestinal disorders,MILD,N,DOSE INCREASED,PROBABLE,RECOVERED,2025-04-10,2025-04-23
CLIN-2025-042,AE,CLIN-2025-042-SITE02-0222,683,Back pain,Back pain,Musculoskeletal and connective tissue disorders,MILD,N,TREATMENT INTERRUPTED,POSSIBLE,RECOVERED,2025-03-31,2025-04-04
CLIN-2025-042,AE,CLIN-2025-042-SITE02-0222,684,Diarrhea,Diarrhea,Gastrointestinal disorders,MILD,N,DOSE REDUCED,POSSIBLE,RECOVERING,2025-05-04,
CLIN-2025-042,AE,CLIN-2025-042-SITE02-0222,685,Pruritus,Pruritus,Skin and subcutaneous tissue disorders,MILD,N,TREATMENT INTERRUPTED,VERY LIKELY,UNKNOWN,2025-05-08,2025-05-10
CLIN-2025-042,AE,CLIN-2025-042-SITE03-0223,686,Cough,Cough,"Respiratory, thoracic and mediastinal disorders",MODERATE,N,DOSE INCREASED,POSSIBLE,RECOVERED,2025-05-08,
CLIN-2025-042,AE,CLIN-2025-042-SITE03-0223,687,Fever,Fever,General disorders and administration site conditions,MILD,N,DOSE INCREASED,PROBABLE,NOT RECOVERED,2025-04-25,
CLIN-2025-042,AE,CLIN-2025-042-SITE03-0223,688,Nausea,Nausea,Gastrointestinal disorders,MILD,N,NONE,UNLIKELY,RECOVERED,2025-05-16,2025-05-21
CLIN-2025-042,AE,CLIN-2025-042-SITE03-0223,689,Insomnia,Insomnia,Nervous system disorders,SEVERE,N,NONE,UNLIKELY,RECOVERED,2025-04-08,2025-04-23
CLIN-2025-042,AE,CLIN-2025-042-SITE04-0224,690,Tachycardia,Tachycardia,Cardiac disorders,SEVERE,N,NONE,PROBABLE,RECOVERING,2025-05-23,2025-06-09
CLIN-2025-042,AE,CLIN-2025-042-SITE04-0224,691,Pruritus,Pruritus,Skin and subcutaneous tissue disorders,SEVERE,N,DOSE REDUCED,UNLIKELY,RECOVERED,2025-05-04,2025-05-20
CLIN-2025-042,AE,CLIN-2025-042-SITE04-0224,692,Rash,Rash,Skin and subcutaneous tissue disorders,MODERATE,N,DOSE REDUCED,POSSIBLE,RECOVERED,2025-04-29,2025-05-16
CLIN-2025-042,AE,CLIN-2025-042-SITE04-0224,693,Dizziness,Dizziness,Nervous system disorders,MILD,N,TREATMENT WITHDRAWN,POSSIBLE,RECOVERED,2025-06-06,2025-06-23
CLIN-2025-042,AE,CLIN-2025-042-SITE04-0224,694,Back pain,Back pain,Musculoskeletal and connective tissue disorders,MODERATE,N,TREATMENT WITHDRAWN,PROBABLE,RECOVERED,2025-05-05,2025-05-13
CLIN-2025-042,AE,CLIN-2025-042-SITE05-0225,695,Hypertension,Hypertension,Vascular disorders,MILD,Y,TREATMENT WITHDRAWN,VERY LIKELY,RECOVERED,2025-02-21,2025-03-01
CLIN-2025-042,AE,CLIN-2025-042-SITE05-0225,696,Fever,Fever,General disorders and administration site conditions,MILD,N,TREATMENT INTERRUPTED,POSSIBLE,RECOVERED,2025-02-04,
CLIN-2025-042,AE,CLIN-2025-042-SITE05-0225,697,Rash,Rash,Skin and subcutaneous tissue disorders,MODERATE,Y,NONE,PROBABLE,NOT RECOVERED,2025-02-24,2025-03-05
CLIN-2025-042,AE,CLIN-2025-042-SITE01-0226,698,Muscle pain,Muscle pain,Musculoskeletal and connective tissue disorders,MILD,N,TREATMENT INTERRUPTED,POSSIBLE,RECOVERED,2025-03-11,
CLIN-2025-042,AE,CLIN-2025-042-SITE02-0227,699,Fatigue,Fatigue,General disorders and administration site conditions,MILD,N,TREATMENT WITHDRAWN,VERY LIKELY,RECOVERED,2025-06-02,2025-06-15
CLIN-2025-042,AE,CLIN-2025-042-SITE02-0227,700,Cough,Cough,"Respiratory, thoracic and mediastinal disorders",MODERATE,N,DOSE REDUCED,POSSIBLE,NOT RECOVERED,2025-06-03,
CLIN-2025-042,AE,CLIN-2025-042-SITE03-0228,701,Vomiting,Vomiting,Gastrointestinal disorders,MILD,N,TREATMENT WITHDRAWN,POSSIBLE,RECOVERED,2025-02-12,2025-02-15
CLIN-2025-042,AE,CLIN-2025-042-SITE03-0228,702,Fever,Fever,General disorders and administration site conditions,MILD,N,TREATMENT WITHDRAWN,POSSIBLE,RECOVERED,2025-03-15,
CLIN-2025-042,AE,CLIN-2025-042-SITE03-0228,703,Dizziness,Dizziness,Nervous system disorders,MILD,N,DOSE REDUCED,POSSIBLE,RECOVERED,2025-02-06,
CLIN-2025-042,AE,CLIN-2025-042-SITE03-0228,704,Fever,Fever,General disorders and administration site conditions,MILD,N,TREATMENT WITHDRAWN,VERY LIKELY,RECOVERED,2025-03-08,
CLIN-2025-042,AE,CLIN-2025-042-SITE04-0229,705,Hypertension,Hypertension,Vascular disorders,MILD,Y,DOSE REDUCED,PROBABLE,NOT RECOVERED,2025-04-01,
CLIN-2025-042,AE,CLIN-2025-042-SITE04-0229,706,Dyspnea,Dyspnea,"Respiratory, thoracic and mediastinal disorders",MILD,N,DOSE REDUCED,POSSIBLE,RECOVERED,2025-03-29,2025-04-14
CLIN-2025-042,AE,CLIN-2025-042-SITE04-0229,707,Rash,Rash,Skin and subcutaneous tissue disorders,MILD,N,NONE,VERY LIKELY,RECOVERING,2025-03-09,2025-03-20
CLIN-2025-042,AE,CLIN-2025-042-SITE05-0230,708,Hypertension,Hypertension,Vascular disorders,MODERATE,N,DOSE REDUCED,VERY LIKELY,RECOVERED,2025-08-01,2025-08-11
CLIN-2025-042,AE,CLIN-2025-042-SITE05-0230,709,Fever,Fever,General disorders and administration site conditions,MILD,N,TREATMENT INTERRUPTED,POSSIBLE,RECOVERED,2025-07-17,2025-07-31
CLIN-2025-042,AE,CLIN-2025-042-SITE05-0230,710,Tremor,Tremor,Nervous system disorders,MODERATE,N,TREATMENT WITHDRAWN,POSSIBLE,RECOVERED,2025-07-27,2025-08-05
CLIN-2025-042,AE,CLIN-2025-042-SITE05-0230,711,Vomiting,Vomiting,Gastrointestinal disorders,MILD,N,NONE,POSSIBLE,RECOVERED,2025-08-27,2025-09-15
CLIN-2025-042,AE,CLIN-2025-042-SITE01-0231,712,Back pain,Back pain,Musculoskeletal and connective tissue disorders,MILD,N,DOSE REDUCED,POSSIBLE,RECOVERED,2025-05-07,2025-05-17
CLIN-2025-042,AE,CLIN-2025-042-SITE01-0231,713,Nausea,Nausea,Gastrointestinal disorders,MILD,N,TREATMENT WITHDRAWN,PROBABLE,UNKNOWN,2025-03-31,2025-04-14
CLIN-2025-042,AE,CLIN-2025-042-SITE01-0231,714,Dizziness,Dizziness,Nervous system disorders,MILD,Y,NONE,VERY LIKELY,RECOVERED,2025-04-24,2025-05-01
CLIN-2025-042,AE,CLIN-2025-042-SITE01-0231,715,Muscle pain,Muscle pain,Musculoskeletal and connective tissue disorders,MODERATE,Y,DOSE REDUCED,POSSIBLE,RECOVERED,2025-05-02,
CLIN-2025-042,AE,CLIN-2025-042-SITE02-0232,716,Muscle pain,Muscle pain,Musculoskeletal and connective tissue disorders,MILD,Y,DOSE REDUCED,PROBABLE,RECOVERED,2025-06-06,2025-06-16
CLIN-2025-042,AE,CLIN-2025-042-SITE02-0232,717,Tremor,Tremor,Nervous system disorders,MILD,N,NONE,UNLIKELY,RECOVERED,2025-06-05,2025-06-10
CLIN-2025-042,AE,CLIN-2025-042-SITE03-0233,718,Pruritus,Pruritus,Skin and subcutaneous tissue disorders,MILD,N,TREATMENT INTERRUPTED,UNLIKELY,RECOVERING,2025-06-21,2025-06-29
CLIN-2025-042,AE,CLIN-2025-042-SITE03-0233,719,Tachycardia,Tachycardia,Cardiac disorders,MODERATE,N,NONE,POSSIBLE,RECOVERED,2025-06-10,2025-06-20
CLIN-2025-042,AE,CLIN-2025-042-SITE03-0233,720,Tremor,Tremor,Nervous system disorders,MILD,N,DOSE REDUCED,UNLIKELY,RECOVERING,2025-07-03,2025-07-20
CLIN-2025-042,AE,CLIN-2025-042-SITE03-0233,721,Muscle pain,Muscle pain,Musculoskeletal and connective tissue disorders,SEVERE,N,TREATMENT WITHDRAWN,POSSIBLE,RECOVERED,2025-07-14,2025-07-19
CLIN-2025-042,AE,CLIN-2025-042-SITE04-0234,722,Rash,Rash,Skin and subcutaneous tissue disorders,MILD,N,TREATMENT WITHDRAWN,PROBABLE,RECOVERING,2025-04-10,2025-04-12
CLIN-2025-042,AE,CLIN-2025-042-SITE04-0234,723,Fatigue,Fatigue,General disorders and administration site conditions,MODERATE,N,DOSE REDUCED,PROBABLE,RECOVERED,2025-03-13,
CLIN-2025-042,AE,CLIN-2025-042-SITE04-0234,724,Tremor,Tremor,Nervous system disorders,MILD,N,TREATMENT WITHDRAWN,PROBABLE,RECOVERED,2025-03-26,2025-04-02
CLIN-2025-042,AE,CLIN-2025-042-SITE01-0236,725,Abdominal pain,Abdominal pain,Gastrointestinal disorders,MILD,N,TREATMENT INTERRUPTED,PROBABLE,RECOVERING,2025-08-07,2025-08-12
CLIN-2025-042,AE,CLIN-2025-042-SITE01-0236,726,Pruritus,Pruritus,Skin and subcutaneous tissue disorders,MODERATE,N,TREATMENT INTERRUPTED,PROBABLE,RECOVERED,2025-07-26,2025-08-04
CLIN-2025-042,AE,CLIN-2025-042-SITE01-0236,727,Cough,Cough,"Respiratory, thoracic and mediastinal disorders",MILD,Y,DOSE INCREASED,UNLIKELY,RECOVERED,2025-07-20,
CLIN-2025-042,AE,CLIN-2025-042-SITE01-0236,728,Fever,Fever,General disorders and administration site conditions,SEVERE,N,NONE,POSSIBLE,NOT RECOVERED,2025-06-27,2025-07-05
CLIN-2025-042,AE,CLIN-2025-042-SITE01-0236,729,Nausea,Nausea,Gastrointestinal disorders,MILD,N,DOSE INCREASED,POSSIBLE,RECOVERED,2025-08-03,2025-08-10
CLIN-2025-042,AE,CLIN-2025-042-SITE01-0236,730,Hypertension,Hypertension,Vascular disorders,MILD,N,TREATMENT WITHDRAWN,POSSIBLE,RECOVERED,2025-06-26,2025-07-07
CLIN-2025-042,AE,CLIN-2025-042-SITE02-0237,731,Tachycardia,Tachycardia,Cardiac disorders,SEVERE,N,NONE,PROBABLE,RECOVERED,2025-02-16,
CLIN-2025-042,AE,CLIN-2025-042-SITE02-0237,732,Hypertension,Hypertension,Vascular disorders,MODERATE,N,DOSE REDUCED,UNLIKELY,RECOVERED,2025-02-12,2025-02-24
CLIN-2025-042,AE,CLIN-2025-042-SITE03-0238,733,Muscle pain,Muscle pain,Musculoskeletal and connective tissue disorders,MILD,N,DOSE INCREASED,POSSIBLE,RECOVERED,2025-06-13,2025-06-25
CLIN-2025-042,AE,CLIN-2025-042-SITE03-0238,734,Tachycardia,Tachycardia,Cardiac disorders,MODERATE,N,TREATMENT WITHDRAWN,UNLIKELY,NOT RECOVERED,2025-06-28,2025-07-17
CLIN-2025-042,AE,CLIN-2025-042-SITE03-0238,735,Cough,Cough,"Respiratory, thoracic and mediastinal disorders",MILD,Y,DOSE REDUCED,UNLIKELY,RECOVERED,2025-07-23,2025-08-01
CLIN-2025-042,AE,CLIN-2025-042-SITE03-0238,736,Tremor,Tremor,Nervous system disorders,MODERATE,N,TREATMENT INTERRUPTED,POSSIBLE,RECOVERED,2025-07-02,2025-07-07
CLIN-2025-042,AE,CLIN-2025-042-SITE04-0239,737,Back pain,Back pain,Musculoskeletal and connective tissue disorders,MODERATE,N,DOSE REDUCED,PROBABLE,RECOVERED,2025-02-21,2025-03-11
CLIN-2025-042,AE,CLIN-2025-042-SITE05-0240,738,Cough,Cough,"Respiratory, thoracic and mediastinal disorders",MILD,N,DOSE REDUCED,PROBABLE,RECOVERED,2025-05-04,2025-05-07
CLIN-2025-042,AE,CLIN-2025-042-SITE05-0240,739,Constipation,Constipation,Gastrointestinal disorders,MODERATE,N,DOSE REDUCED,VERY LIKELY,RECOVERED,2025-05-31,2025-06-13
CLIN-2025-042,AE,CLIN-2025-042-SITE05-0240,740,Tremor,Tremor,Nervous system disorders,MILD,N,DOSE INCREASED,POSSIBLE,RECOVERED,2025-06-06,2025-06-09
CLIN-2025-042,AE,CLIN-2025-042-SITE05-0240,741,Fever,Fever,General disorders and administration site conditions,SEVERE,N,TREATMENT INTERRUPTED,POSSIBLE,RECOVERED,2025-06-03,2025-06-22
CLIN-2025-042,AE,CLIN-2025-042-SITE01-0241,742,Tachycardia,Tachycardia,Cardiac disorders,MILD,N,DOSE REDUCED,VERY LIKELY,RECOVERED,2025-02-01,2025-02-18
CLIN-2025-042,AE,CLIN-2025-042-SITE01-0241,743,Pruritus,Pruritus,Skin and subcutaneous tissue disorders,MILD,N,DOSE REDUCED,POSSIBLE,NOT RECOVERED,2025-02-15,2025-03-01
CLIN-2025-042,AE,CLIN-2025-042-SITE01-0241,744,Dizziness,Dizziness,Nervous system disorders,MODERATE,N,TREATMENT INTERRUPTED,POSSIBLE,RECOVERED,2025-02-02,2025-02-06
CLIN-2025-042,AE,CLIN-2025-042-SITE01-0241,745,Rash,Rash,Skin and subcutaneous tissue disorders,MODERATE,N,NONE,UNLIKELY,RECOVERED,2025-02-02,
CLIN-2025-042,AE,CLIN-2025-042-SITE01-0241,746,Constipation,Constipation,Gastrointestinal disorders,MODERATE,N,DOSE INCREASED,POSSIBLE,RECOVERED,2025-03-15,2025-03-26
CLIN-2025-042,AE,CLIN-2025-042-SITE02-0242,747,Hypertension,Hypertension,Vascular disorders,MILD,N,TREATMENT INTERRUPTED,UNLIKELY,NOT RECOVERED,2025-04-06,2025-04-24
CLIN-2025-042,AE,CLIN-2025-042-SITE02-0242,748,Dizziness,Dizziness,Nervous system disorders,MILD,N,DOSE REDUCED,PROBABLE,RECOVERED,2025-05-10,2025-05-17
CLIN-2025-042,AE,CLIN-2025-042-SITE02-0242,749,Tachycardia,Tachycardia,Cardiac disorders,MILD,Y,TREATMENT WITHDRAWN,POSSIBLE,RECOVERED,2025-05-05,2025-05-19
CLIN-2025-042,AE,CLIN-2025-042-SITE02-0242,750,Abdominal pain,Abdominal pain,Gastrointestinal disorders,MILD,N,DOSE REDUCED,PROBABLE,NOT RECOVERED,2025-04-11,2025-04-13
CLIN-2025-042,AE,CLIN-2025-042-SITE02-0242,751,Vomiting,Vomiting,Gastrointestinal disorders,MILD,N,NONE,UNLIKELY,RECOVERED,2025-05-02,2025-05-20
CLIN-2025-042,AE,CLIN-2025-042-SITE02-0242,752,Cough,Cough,"Respiratory, thoracic and mediastinal disorders",MILD,N,TREATMENT WITHDRAWN,POSSIBLE,RECOVERED,2025-04-01,2025-04-07
CLIN-2025-042,AE,CLIN-2025-042-SITE03-0243,753,Fever,Fever,General disorders and administration site conditions,MILD,N,DOSE REDUCED,POSSIBLE,RECOVERED,2025-02-10,
CLIN-2025-042,AE,CLIN-2025-042-SITE04-0244,754,Muscle pain,Muscle pain,Musculoskeletal and connective tissue disorders,MILD,N,NONE,PROBABLE,RECOVERED,2025-04-16,2025-04-19
CLIN-2025-042,AE,CLIN-2025-042-SITE05-0245,755,Constipation,Constipation,Gastrointestinal disorders,MILD,N,NONE,VERY LIKELY,RECOVERING,2025-06-10,2025-06-24
CLIN-2025-042,AE,CLIN-2025-042-SITE05-0245,756,Fever,Fever,General disorders and administration site conditions,MILD,N,TREATMENT WITHDRAWN,PROBABLE,UNKNOWN,2025-06-10,2025-06-16
CLIN-2025-042,AE,CLIN-2025-042-SITE05-0245,757,Diarrhea,Diarrhea,Gastrointestinal disorders,MILD,N,DOSE INCREASED,UNLIKELY,NOT RECOVERED,2025-07-12,2025-07-22
CLIN-2025-042,AE,CLIN-2025-042-SITE05-0245,758,Headache,Headache,Nervous system disorders,SEVERE,N,TREATMENT INTERRUPTED,VERY LIKELY,NOT RECOVERED,2025-07-13,2025-07-26
CLIN-2025-042,AE,CLIN-2025-042-SITE01-0246,759,Tachycardia,Tachycardia,Cardiac disorders,MODERATE,N,NONE,POSSIBLE,RECOVERED,2025-05-19,
CLIN-2025-042,AE,CLIN-2025-042-SITE01-0246,760,Nausea,Nausea,Gastrointestinal disorders,MILD,N,TREATMENT INTERRUPTED,POSSIBLE,RECOVERED,2025-05-09,2025-05-19
CLIN-2025-042,AE,CLIN-2025-042-SITE01-0246,761,Diarrhea,Diarrhea,Gastrointestinal disorders,MILD,N,TREATMENT WITHDRAWN,PROBABLE,RECOVERED,2025-05-21,2025-06-09
CLIN-2025-042,AE,CLIN-2025-042-SITE02-0247,762,Pruritus,Pruritus,Skin and subcutaneous tissue disorders,MILD,N,TREATMENT WITHDRAWN,VERY LIKELY,RECOVERED,2025-05-22,2025-06-08
CLIN-2025-042,AE,CLIN-2025-042-SITE02-0247,763,Dizziness,Dizziness,Nervous system disorders,MILD,N,DOSE INCREASED,PROBABLE,RECOVERED,2025-05-26,2025-06-12
CLIN-2025-042,AE,CLIN-2025-042-SITE03-0248,764,Fever,Fever,General disorders and administration site conditions,MODERATE,N,DOSE REDUCED,POSSIBLE,RECOVERED,2025-06-06,2025-06-17
CLIN-2025-042,AE,CLIN-2025-042-SITE03-0248,765,Cough,Cough,"Respiratory, thoracic and mediastinal disorders",MILD,N,NONE,PROBABLE,RECOVERED,2025-06-14,2025-06-22
CLIN-2025-042,AE,CLIN-2025-042-SITE04-0249,766,Dizziness,Dizziness,Nervous system disorders,MODERATE,N,TREATMENT INTERRUPTED,PROBABLE,RECOVERING,2025-05-06,2025-05-24
CLIN-2025-042,AE,CLIN-2025-042-SITE04-0249,767,Back pain,Back pain,Musculoskeletal and connective tissue disorders,MODERATE,N,TREATMENT WITHDRAWN,VERY LIKELY,RECOVERING,2025-04-04,2025-04-20
CLIN-2025-042,AE,CLIN-2025-042-SITE04-0249,768,Abdominal pain,Abdominal pain,Gastrointestinal disorders,MILD,N,TREATMENT WITHDRAWN,POSSIBLE,RECOVERED,2025-04-19,2025-04-27
CLIN-2025-042,AE,CLIN-2025-042-SITE04-0249,769,Fatigue,Fatigue,General disorders and administration site conditions,MILD,N,TREATMENT INTERRUPTED,POSSIBLE,RECOVERED,2025-04-16,2025-05-05
CLIN-2025-042,AE,CLIN-2025-042-SITE04-0249,770,Diarrhea,Diarrhea,Gastrointestinal disorders,MODERATE,N,DOSE INCREASED,PROBABLE,RECOVERED,2025-04-28,2025-05-01
CLIN-2025-042,AE,CLIN-2025-042-SITE04-0249,771,Tachycardia,Tachycardia,Cardiac disorders,MILD,N,DOSE REDUCED,PROBABLE,RECOVERED,2025-05-16,2025-05-25
CLIN-2025-042,AE,CLIN-2025-042-SITE05-0250,772,Diarrhea,Diarrhea,Gastrointestinal disorders,SEVERE,N,NONE,VERY LIKELY,UNKNOWN,2025-05-23,2025-05-30
CLIN-2025-042,AE,CLIN-2025-042-SITE05-0250,773,Vomiting,Vomiting,Gastrointestinal disorders,MILD,N,DOSE INCREASED,VERY LIKELY,RECOVERED,2025-05-10,2025-05-27
CLIN-2025-042,AE,CLIN-2025-042-SITE01-0251,774,Dizziness,Dizziness,Nervous system disorders,MODERATE,N,TREATMENT WITHDRAWN,UNLIKELY,RECOVERED,2025-08-19,2025-09-01
CLIN-2025-042,AE,CLIN-2025-042-SITE01-0251,775,Fatigue,Fatigue,General disorders and administration site conditions,MILD,N,DOSE REDUCED,POSSIBLE,RECOVERED,2025-07-21,
CLIN-2025-042,AE,CLIN-2025-042-SITE03-0253,776,Tachycardia,Tachycardia,Cardiac disorders,SEVERE,N,TREATMENT WITHDRAWN,PROBABLE,RECOVERED,2025-02-15,2025-02-24
CLIN-2025-042,AE,CLIN-2025-042-SITE03-0253,777,Insomnia,Insomnia,Nervous system disorders,MILD,N,DOSE REDUCED,POSSIBLE,RECOVERED,2025-03-14,2025-04-01
CLIN-2025-042,AE,CLIN-2025-042-SITE03-0253,778,Tachycardia,Tachycardia,Cardiac disorders,MILD,N,TREATMENT INTERRUPTED,PROBABLE,RECOVERED,2025-02-07,2025-02-12
CLIN-2025-042,AE,CLIN-2025-042-SITE03-0253,779,Cough,Cough,"Respiratory, thoracic and mediastinal disorders",SEVERE,N,DOSE REDUCED,PROBABLE,RECOVERED,2025-03-05,2025-03-22
CLIN-2025-042,AE,CLIN-2025-042-SITE04-0254,780,Rash,Rash,Skin and subcutaneous tissue disorders,SEVERE,N,DOSE INCREASED,UNLIKELY,RECOVERING,2025-08-12,2025-08-15
CLIN-2025-042,AE,CLIN-2025-042-SITE04-0254,781,Headache,Headache,Nervous system disorders,MODERATE,N,NONE,POSSIBLE,RECOVERED,2025-08-19,2025-09-06
CLIN-2025-042,AE,CLIN-2025-042-SITE05-0255,782,Cough,Cough,"Respiratory, thoracic and mediastinal disorders",MODERATE,N,DOSE INCREASED,VERY LIKELY,RECOVERED,2025-02-20,2025-02-25
CLIN-2025-042,AE,CLIN-2025-042-SITE05-0255,783,Headache,Headache,Nervous system disorders,MILD,N,DOSE INCREASED,PROBABLE,RECOVERED,2025-03-22,2025-03-29
CLIN-2025-042,AE,CLIN-2025-042-SITE05-0255,784,Fever,Fever,General disorders and administration site conditions,MILD,N,DOSE REDUCED,UNLIKELY,RECOVERED,2025-02-16,2025-02-19
CLIN-2025-042,AE,CLIN-2025-042-SITE01-0256,785,Tremor,Tremor,Nervous system disorders,MILD,N,NONE,UNLIKELY,NOT RECOVERED,2025-07-16,2025-08-03
CLIN-2025-042,AE,CLIN-2025-042-SITE01-0256,786,Abdominal pain,Abdominal pain,Gastrointestinal disorders,MILD,N,DOSE REDUCED,UNLIKELY,RECOVERING,2025-06-11,2025-06-15
CLIN-2025-042,AE,CLIN-2025-042-SITE01-0256,787,Dizziness,Dizziness,Nervous system disorders,SEVERE,N,TREATMENT WITHDRAWN,UNLIKELY,RECOVERED,2025-07-10,2025-07-25
CLIN-2025-042,AE,CLIN-2025-042-SITE01-0256,788,Fatigue,Fatigue,General disorders and administration site conditions,MILD,N,NONE,VERY LIKELY,RECOVERED,2025-07-02,
CLIN-2025-042,AE,CLIN-2025-042-SITE01-0256,789,Dizziness,Dizziness,Nervous system disorders,MILD,N,NONE,POSSIBLE,RECOVERED,2025-06-24,2025-06-28
CLIN-2025-042,AE,CLIN-2025-042-SITE01-0256,790,Diarrhea,Diarrhea,Gastrointestinal disorders,MODERATE,N,TREATMENT WITHDRAWN,POSSIBLE,NOT RECOVERED,2025-07-03,2025-07-15
CLIN-2025-042,AE,CLIN-2025-042-SITE02-0257,791,Nausea,Nausea,Gastrointestinal disorders,MILD,N,TREATMENT INTERRUPTED,PROBABLE,RECOVERED,2025-03-15,2025-03-24
CLIN-2025-042,AE,CLIN-2025-042-SITE02-0257,792,Back pain,Back pain,Musculoskeletal and connective tissue disorders,SEVERE,N,DOSE REDUCED,PROBABLE,NOT RECOVERED,2025-03-04,2025-03-23
CLIN-2025-042,AE,CLIN-2025-042-SITE02-0257,793,Rash,Rash,Skin and subcutaneous tissue disorders,SEVERE,N,DOSE INCREASED,VERY LIKELY,RECOVERED,2025-03-20,2025-04-07
CLIN-2025-042,AE,CLIN-2025-042-SITE02-0257,794,Tremor,Tremor,Nervous system disorders,MILD,N,TREATMENT INTERRUPTED,VERY LIKELY,RECOVERED,2025-03-18,2025-04-01
CLIN-2025-042,AE,CLIN-2025-042-SITE03-0258,795,Vomiting,Vomiting,Gastrointestinal disorders,MILD,N,TREATMENT INTERRUPTED,PROBABLE,RECOVERED,2025-05-05,2025-05-15
CLIN-2025-042,AE,CLIN-2025-042-SITE03-0258,796,Cough,Cough,"Respiratory, thoracic and mediastinal disorders",MODERATE,Y,DOSE INCREASED,UNLIKELY,RECOVERING,2025-04-13,2025-04-23
CLIN-2025-042,AE,CLIN-2025-042-SITE04-0259,797,Dyspnea,Dyspnea,"Respiratory, thoracic and mediastinal disorders",MILD,N,TREATMENT WITHDRAWN,POSSIBLE,RECOVERED,2025-04-19,2025-04-29
CLIN-2025-042,AE,CLIN-2025-042-SITE04-0259,798,Back pain,Back pain,Musculoskeletal and connective tissue disorders,MILD,N,NONE,POSSIBLE,RECOVERING,2025-04-24,2025-05-06
CLIN-2025-042,AE,CLIN-2025-042-SITE04-0259,799,Tachycardia,Tachycardia,Cardiac disorders,MILD,N,TREATMENT WITHDRAWN,POSSIBLE,NOT RECOVERED,2025-05-07,2025-05-11
CLIN-2025-042,AE,CLIN-2025-042-SITE05-0260,800,Headache,Headache,Nervous system disorders,MILD,N,DOSE REDUCED,VERY LIKELY,RECOVERED,2025-04-17,2025-05-01
CLIN-2025-042,AE,CLIN-2025-042-SITE05-0260,801,Fatigue,Fatigue,General disorders and administration site conditions,MODERATE,N,TREATMENT WITHDRAWN,VERY LIKELY,RECOVERED,2025-04-15,2025-05-01
CLIN-2025-042,AE,CLIN-2025-042-SITE01-0261,802,Fever,Fever,General disorders and administration site conditions,MODERATE,N,TREATMENT INTERRUPTED,UNLIKELY,RECOVERING,2025-05-04,2025-05-23
CLIN-2025-042,AE,CLIN-2025-042-SITE01-0261,803,Tremor,Tremor,Nervous system disorders,MODERATE,N,DOSE REDUCED,POSSIBLE,RECOVERED,2025-03-21,2025-04-02
CLIN-2025-042,AE,CLIN-2025-042-SITE01-0261,804,Headache,Headache,Nervous system disorders,MILD,N,DOSE REDUCED,VERY LIKELY,RECOVERED,2025-04-11,2025-04-24
CLIN-2025-042,AE,CLIN-2025-042-SITE01-0261,805,Muscle pain,Muscle pain,Musculoskeletal and connective tissue disorders,MODERATE,N,DOSE REDUCED,POSSIBLE,RECOVERED,2025-05-04,2025-05-13
CLIN-2025-042,AE,CLIN-2025-042-SITE02-0262,806,Fatigue,Fatigue,General disorders and administration site conditions,MILD,N,TREATMENT WITHDRAWN,PROBABLE,RECOVERED,2025-05-25,2025-06-13
CLIN-2025-042,AE,CLIN-2025-042-SITE02-0262,807,Vomiting,Vomiting,Gastrointestinal disorders,SEVERE,N,TREATMENT WITHDRAWN,VERY LIKELY,RECOVERED,2025-05-27,
CLIN-2025-042,AE,CLIN-2025-042-SITE02-0262,808,Vomiting,Vomiting,Gastrointestinal disorders,MODERATE,N,TREATMENT INTERRUPTED,POSSIBLE,NOT RECOVERED,2025-07-02,2025-07-10
CLIN-2025-042,AE,CLIN-2025-042-SITE02-0262,809,Back pain,Back pain,Musculoskeletal and connective tissue disorders,MILD,N,TREATMENT INTERRUPTED,PROBABLE,RECOVERED,2025-06-15,2025-06-30
CLIN-2025-042,AE,CLIN-2025-042-SITE03-0263,810,Insomnia,Insomnia,Nervous system disorders,MILD,N,TREATMENT INTERRUPTED,PROBABLE,RECOVERED,2025-05-02,2025-05-05
CLIN-2025-042,AE,CLIN-2025-042-SITE03-0263,811,Fatigue,Fatigue,General disorders and administration site conditions,MODERATE,N,NONE,POSSIBLE,RECOVERED,2025-03-26,
CLIN-2025-042,AE,CLIN-2025-042-SITE04-0264,812,Headache,Headache,Nervous system disorders,MILD,Y,TREATMENT WITHDRAWN,POSSIBLE,RECOVERED,2025-06-05,2025-06-21
CLIN-2025-042,AE,CLIN-2025-042-SITE04-0264,813,Cough,Cough,"Respiratory, thoracic and mediastinal disorders",MILD,Y,DOSE INCREASED,PROBABLE,RECOVERED,2025-05-29,
CLIN-2025-042,AE,CLIN-2025-042-SITE04-0264,814,Diarrhea,Diarrhea,Gastrointestinal disorders,MILD,N,DOSE INCREASED,VERY LIKELY,RECOVERED,2025-06-08,2025-06-18
CLIN-2025-042,AE,CLIN-2025-042-SITE05-0265,815,Tremor,Tremor,Nervous system disorders,MILD,Y,DOSE REDUCED,PROBABLE,RECOVERED,2025-08-01,2025-08-18
CLIN-2025-042,AE,CLIN-2025-042-SITE01-0266,816,Back pain,Back pain,Musculoskeletal and connective tissue disorders,MILD,N,NONE,PROBABLE,RECOVERED,2025-05-17,2025-05-26
CLIN-2025-042,AE,CLIN-2025-042-SITE01-0266,817,Headache,Headache,Nervous system disorders,MILD,N,DOSE INCREASED,PROBABLE,RECOVERED,2025-05-08,2025-05-10
CLIN-2025-042,AE,CLIN-2025-042-SITE01-0266,818,Nausea,Nausea,Gastrointestinal disorders,MILD,N,TREATMENT WITHDRAWN,VERY LIKELY,RECOVERED,2025-05-17,2025-05-26
CLIN-2025-042,AE,CLIN-2025-042-SITE01-0266,819,Vomiting,Vomiting,Gastrointestinal disorders,MODERATE,N,TREATMENT WITHDRAWN,PROBABLE,NOT RECOVERED,2025-06-04,2025-06-11
CLIN-2025-042,AE,CLIN-2025-042-SITE01-0266,820,Tachycardia,Tachycardia,Cardiac disorders,MILD,N,TREATMENT WITHDRAWN,UNLIKELY,RECOVERED,2025-05-11,2025-05-26
CLIN-2025-042,AE,CLIN-2025-042-SITE01-0266,821,Nausea,Nausea,Gastrointestinal disorders,SEVERE,N,NONE,POSSIBLE,NOT RECOVERED,2025-05-04,2025-05-18
CLIN-2025-042,AE,CLIN-2025-042-SITE02-0267,822,Nausea,Nausea,Gastrointestinal disorders,MILD,N,TREATMENT INTERRUPTED,UNLIKELY,NOT RECOVERED,2025-03-23,2025-04-02
CLIN-2025-042,AE,CLIN-2025-042-SITE02-0267,823,Hypertension,Hypertension,Vascular disorders,MODERATE,N,DOSE INCREASED,PROBABLE,RECOVERED,2025-03-16,2025-04-03
CLIN-2025-042,AE,CLIN-2025-042-SITE02-0267,824,Tachycardia,Tachycardia,Cardiac disorders,MILD,N,NONE,PROBABLE,RECOVERED,2025-02-21,2025-03-12
CLIN-2025-042,AE,CLIN-2025-042-SITE03-0268,825,Fever,Fever,General disorders and administration site conditions,MILD,N,TREATMENT INTERRUPTED,UNLIKELY,RECOVERED,2025-08-01,2025-08-02
CLIN-2025-042,AE,CLIN-2025-042-SITE03-0268,826,Vomiting,Vomiting,Gastrointestinal disorders,MILD,N,DOSE REDUCED,POSSIBLE,RECOVERED,2025-07-02,2025-07-15
CLIN-2025-042,AE,CLIN-2025-042-SITE03-0268,827,Pruritus,Pruritus,Skin and subcutaneous tissue disorders,MILD,N,NONE,PROBABLE,NOT RECOVERED,2025-07-01,
CLIN-2025-042,AE,CLIN-2025-042-SITE04-0269,828,Fever,Fever,General disorders and administration site conditions,MILD,Y,TREATMENT WITHDRAWN,VERY LIKELY,RECOVERED,2025-03-08,2025-03-17
CLIN-2025-042,AE,CLIN-2025-042-SITE04-0269,829,Dyspnea,Dyspnea,"Respiratory, thoracic and mediastinal disorders",MODERATE,N,TREATMENT WITHDRAWN,VERY LIKELY,NOT RECOVERED,2025-03-18,2025-03-30
CLIN-2025-042,AE,CLIN-2025-042-SITE04-0269,830,Insomnia,Insomnia,Nervous system disorders,MODERATE,N,DOSE INCREASED,UNLIKELY,RECOVERED,2025-04-12,
CLIN-2025-042,AE,CLIN-2025-042-SITE04-0269,831,Fever,Fever,General disorders and administration site conditions,MILD,N,TREATMENT INTERRUPTED,PROBABLE,RECOVERED,2025-03-09,2025-03-23
CLIN-2025-042,AE,CLIN-2025-042-SITE05-0270,832,Dizziness,Dizziness,Nervous system disorders,MILD,N,TREATMENT INTERRUPTED,UNLIKELY,RECOVERED,2025-03-18,2025-03-26
CLIN-2025-042,AE,CLIN-2025-042-SITE05-0270,833,Cough,Cough,"Respiratory, thoracic and mediastinal disorders",MILD,N,DOSE INCREASED,POSSIBLE,RECOVERING,2025-03-19,
CLIN-2025-042,AE,CLIN-2025-042-SITE05-0270,834,Rash,Rash,Skin and subcutaneous tissue disorders,MILD,N,DOSE REDUCED,PROBABLE,RECOVERED,2025-03-30,
CLIN-2025-042,AE,CLIN-2025-042-SITE05-0270,835,Tremor,Tremor,Nervous system disorders,MODERATE,N,TREATMENT WITHDRAWN,PROBABLE,RECOVERED,2025-03-22,2025-03-30
CLIN-2025-042,AE,CLIN-2025-042-SITE01-0271,836,Tachycardia,Tachycardia,Cardiac disorders,MILD,N,NONE,VERY LIKELY,RECOVERED,2025-04-08,
CLIN-2025-042,AE,CLIN-2025-042-SITE01-0271,837,Back pain,Back pain,Musculoskeletal and connective tissue disorders,MODERATE,N,TREATMENT INTERRUPTED,PROBABLE,RECOVERED,2025-04-03,2025-04-04
CLIN-2025-042,AE,CLIN-2025-042-SITE01-0271,838,Nausea,Nausea,Gastrointestinal disorders,SEVERE,N,DOSE INCREASED,UNLIKELY,RECOVERED,2025-04-20,2025-05-06
CLIN-2025-042,AE,CLIN-2025-042-SITE01-0271,839,Fatigue,Fatigue,General disorders and administration site conditions,MILD,N,NONE,POSSIBLE,RECOVERED,2025-05-07,
CLIN-2025-042,AE,CLIN-2025-042-SITE02-0272,840,Insomnia,Insomnia,Nervous system disorders,MILD,N,DOSE INCREASED,PROBABLE,FATAL,2025-04-17,
CLIN-2025-042,AE,CLIN-2025-042-SITE03-0273,841,Insomnia,Insomnia,Nervous system disorders,MILD,N,TREATMENT INTERRUPTED,VERY LIKELY,RECOVERED,2025-05-25,2025-06-05
CLIN-2025-042,AE,CLIN-2025-042-SITE03-0273,842,Tremor,Tremor,Nervous system disorders,MODERATE,N,DOSE INCREASED,PROBABLE,RECOVERING,2025-06-14,2025-06-19
CLIN-2025-042,AE,CLIN-2025-042-SITE03-0273,843,Muscle pain,Muscle pain,Musculoskeletal and connective tissue disorders,MODERATE,N,TREATMENT WITHDRAWN,VERY LIKELY,NOT RECOVERED,2025-05-20,
CLIN-2025-042,AE,CLIN-2025-042-SITE03-0273,844,Rash,Rash,Skin and subcutaneous tissue disorders,MILD,N,TREATMENT WITHDRAWN,PROBABLE,RECOVERED,2025-06-25,2025-07-08
CLIN-2025-042,AE,CLIN-2025-042-SITE04-0274,845,Fever,Fever,General disorders and administration site conditions,MILD,N,NONE,POSSIBLE,RECOVERED,2025-02-02,2025-02-18
CLIN-2025-042,AE,CLIN-2025-042-SITE05-0275,846,Vomiting,Vomiting,Gastrointestinal disorders,MILD,N,TREATMENT INTERRUPTED,UNLIKELY,RECOVERED,2025-04-24,2025-05-05
CLIN-2025-042,AE,CLIN-2025-042-SITE05-0275,847,Cough,Cough,"Respiratory, thoracic and mediastinal disorders",MODERATE,N,TREATMENT INTERRUPTED,POSSIBLE,RECOVERED,2025-04-29,2025-05-01
CLIN-2025-042,AE,CLIN-2025-042-SITE05-0275,848,Abdominal pain,Abdominal pain,Gastrointestinal disorders,MILD,N,NONE,UNLIKELY,RECOVERED,2025-04-10,2025-04-22
CLIN-2025-042,AE,CLIN-2025-042-SITE05-0275,849,Cough,Cough,"Respiratory, thoracic and mediastinal disorders",MILD,N,NONE,PROBABLE,NOT RECOVERED,2025-04-07,2025-04-26
CLIN-2025-042,AE,CLIN-2025-042-SITE05-0275,850,Pruritus,Pruritus,Skin and subcutaneous tissue disorders,MODERATE,N,TREATMENT WITHDRAWN,PROBABLE,RECOVERING,2025-03-31,2025-04-08
CLIN-2025-042,AE,CLIN-2025-042-SITE05-0275,851,Constipation,Constipation,Gastrointestinal disorders,SEVERE,N,DOSE INCREASED,UNLIKELY,RECOVERING,2025-04-04,
CLIN-2025-042,AE,CLIN-2025-042-SITE01-0276,852,Nausea,Nausea,Gastrointestinal disorders,MILD,Y,DOSE REDUCED,VERY LIKELY,RECOVERED,2025-07-20,2025-07-27
CLIN-2025-042,AE,CLIN-2025-042-SITE02-0277,853,Constipation,Constipation,Gastrointestinal disorders,MILD,N,TREATMENT WITHDRAWN,PROBABLE,RECOVERED,2025-03-08,
CLIN-2025-042,AE,CLIN-2025-042-SITE02-0277,854,Fever,Fever,General disorders and administration site conditions,MODERATE,N,DOSE INCREASED,POSSIBLE,RECOVERED,2025-02-21,
CLIN-2025-042,AE,CLIN-2025-042-SITE03-0278,855,Diarrhea,Diarrhea,Gastrointestinal disorders,MODERATE,Y,DOSE INCREASED,PROBABLE,RECOVERED,2025-06-17,
CLIN-2025-042,AE,CLIN-2025-042-SITE03-0278,856,Headache,Headache,Nervous system disorders,MILD,N,DOSE INCREASED,POSSIBLE,NOT RECOVERED,2025-07-28,2025-07-30
CLIN-2025-042,AE,CLIN-2025-042-SITE03-0278,857,Vomiting,Vomiting,Gastrointestinal disorders,MODERATE,N,DOSE INCREASED,POSSIBLE,RECOVERING,2025-07-18,2025-07-22
CLIN-2025-042,AE,CLIN-2025-042-SITE03-0278,858,Dyspnea,Dyspnea,"Respiratory, thoracic and mediastinal disorders",MODERATE,N,DOSE REDUCED,POSSIBLE,NOT RECOVERED,2025-08-01,2025-08-15
CLIN-2025-042,AE,CLIN-2025-042-SITE03-0278,859,Muscle pain,Muscle pain,Musculoskeletal and connective tissue disorders,MILD,N,DOSE INCREASED,POSSIBLE,FATAL,2025-06-25,2025-06-27
CLIN-2025-042,AE,CLIN-2025-042-SITE04-0279,860,Dyspnea,Dyspnea,"Respiratory, thoracic and mediastinal disorders",MODERATE,N,NONE,VERY LIKELY,RECOVERED,2025-05-04,2025-05-11
CLIN-2025-042,AE,CLIN-2025-042-SITE05-0280,861,Insomnia,Insomnia,Nervous system disorders,MODERATE,N,NONE,UNLIKELY,RECOVERED,2025-04-25,2025-05-14
CLIN-2025-042,AE,CLIN-2025-042-SITE05-0280,862,Headache,Headache,Nervous system disorders,MILD,N,TREATMENT WITHDRAWN,POSSIBLE,RECOVERED,2025-05-03,2025-05-06
CLIN-2025-042,AE,CLIN-2025-042-SITE05-0280,863,Hypertension,Hypertension,Vascular disorders,MILD,N,NONE,PROBABLE,RECOVERED,2025-05-01,2025-05-19
CLIN-2025-042,AE,CLIN-2025-042-SITE05-0280,864,Headache,Headache,Nervous system disorders,MODERATE,N,TREATMENT INTERRUPTED,POSSIBLE,RECOVERING,2025-04-26,2025-05-06
CLIN-2025-042,AE,CLIN-2025-042-SITE01-0281,865,Fever,Fever,General disorders and administration site conditions,MILD,N,NONE,POSSIBLE,RECOVERED,2025-06-17,2025-06-27
CLIN-2025-042,AE,CLIN-2025-042-SITE02-0282,866,Fatigue,Fatigue,General disorders and administration site conditions,SEVERE,N,DOSE REDUCED,PROBABLE,RECOVERED,2025-07-20,2025-07-21
CLIN-2025-042,AE,CLIN-2025-042-SITE02-0282,867,Diarrhea,Diarrhea,Gastrointestinal disorders,MILD,Y,TREATMENT WITHDRAWN,UNLIKELY,NOT RECOVERED,2025-07-20,2025-07-30
CLIN-2025-042,AE,CLIN-2025-042-SITE02-0282,868,Abdominal pain,Abdominal pain,Gastrointestinal disorders,MODERATE,N,DOSE INCREASED,PROBABLE,RECOVERED,2025-06-25,2025-07-12
CLIN-2025-042,AE,CLIN-2025-042-SITE02-0282,869,Insomnia,Insomnia,Nervous system disorders,MODERATE,N,DOSE INCREASED,POSSIBLE,RECOVERED,2025-07-09,2025-07-24
CLIN-2025-042,AE,CLIN-2025-042-SITE02-0282,870,Hypertension,Hypertension,Vascular disorders,MILD,N,NONE,VERY LIKELY,RECOVERED,2025-06-29,
CLIN-2025-042,AE,CLIN-2025-042-SITE02-0282,871,Dizziness,Dizziness,Nervous system disorders,MILD,Y,TREATMENT INTERRUPTED,POSSIBLE,RECOVERED,2025-06-20,2025-07-06
CLIN-2025-042,AE,CLIN-2025-042-SITE03-0283,872,Headache,Headache,Nervous system disorders,MILD,N,DOSE INCREASED,PROBABLE,RECOVERED,2025-03-27,
CLIN-2025-042,AE,CLIN-2025-042-SITE03-0283,873,Headache,Headache,Nervous system disorders,MODERATE,N,NONE,POSSIBLE,RECOVERED,2025-04-17,2025-05-04
CLIN-2025-042,AE,CLIN-2025-042-SITE03-0283,874,Dyspnea,Dyspnea,"Respiratory, thoracic and mediastinal disorders",MILD,N,TREATMENT WITHDRAWN,UNLIKELY,RECOVERED,2025-04-01,2025-04-09
CLIN-2025-042,AE,CLIN-2025-042-SITE04-0284,875,Back pain,Back pain,Musculoskeletal and connective tissue disorders,MILD,N,TREATMENT INTERRUPTED,PROBABLE,RECOVERED,2025-05-15,2025-06-03
CLIN-2025-042,AE,CLIN-2025-042-SITE04-0284,876,Tachycardia,Tachycardia,Cardiac disorders,MILD,N,DOSE REDUCED,PROBABLE,RECOVERED,2025-05-15,2025-05-30
CLIN-2025-042,AE,CLIN-2025-042-SITE04-0284,877,Diarrhea,Diarrhea,Gastrointestinal disorders,MILD,N,NONE,POSSIBLE,RECOVERED,2025-05-24,2025-06-10
CLIN-2025-042,AE,CLIN-2025-042-SITE04-0284,878,Insomnia,Insomnia,Nervous system disorders,MILD,N,TREATMENT WITHDRAWN,POSSIBLE,RECOVERED,2025-05-18,
CLIN-2025-042,AE,CLIN-2025-042-SITE05-0285,879,Dizziness,Dizziness,Nervous system disorders,MODERATE,N,TREATMENT INTERRUPTED,VERY LIKELY,RECOVERED,2025-02-11,2025-02-18
CLIN-2025-042,AE,CLIN-2025-042-SITE05-0285,880,Headache,Headache,Nervous system disorders,MODERATE,N,NONE,VERY LIKELY,RECOVERED,2025-03-07,2025-03-23
CLIN-2025-042,AE,CLIN-2025-042-SITE05-0285,881,Muscle pain,Muscle pain,Musculoskeletal and connective tissue disorders,MILD,N,TREATMENT INTERRUPTED,PROBABLE,RECOVERED,2025-01-30,2025-02-11
CLIN-2025-042,AE,CLIN-2025-042-SITE05-0285,882,Headache,Headache,Nervous system disorders,MILD,N,NONE,UNLIKELY,NOT RECOVERED,2025-01-27,2025-02-07
CLIN-2025-042,AE,CLIN-2025-042-SITE01-0286,883,Cough,Cough,"Respiratory, thoracic and mediastinal disorders",SEVERE,N,TREATMENT INTERRUPTED,POSSIBLE,RECOVERING,2025-03-27,2025-04-10
CLIN-2025-042,AE,CLIN-2025-042-SITE01-0286,884,Fatigue,Fatigue,General disorders and administration site conditions,MILD,N,TREATMENT WITHDRAWN,VERY LIKELY,RECOVERED,2025-05-13,
CLIN-2025-042,AE,CLIN-2025-042-SITE01-0286,885,Fever,Fever,General disorders and administration site conditions,MILD,N,TREATMENT INTERRUPTED,POSSIBLE,NOT RECOVERED,2025-04-11,2025-04-26
CLIN-2025-042,AE,CLIN-2025-042-SITE02-0287,886,Dizziness,Dizziness,Nervous system disorders,MODERATE,N,DOSE REDUCED,VERY LIKELY,NOT RECOVERED,2025-02-12,2025-02-28
CLIN-2025-042,AE,CLIN-2025-042-SITE02-0287,887,Fever,Fever,General disorders and administration site conditions,MILD,N,TREATMENT WITHDRAWN,VERY LIKELY,NOT RECOVERED,2025-02-12,
CLIN-2025-042,AE,CLIN-2025-042-SITE02-0287,888,Nausea,Nausea,Gastrointestinal disorders,MILD,N,TREATMENT INTERRUPTED,POSSIBLE,RECOVERED,2025-03-01,2025-03-02
CLIN-2025-042,AE,CLIN-2025-042-SITE02-0287,889,Fever,Fever,General disorders and administration site conditions,MILD,N,DOSE INCREASED,UNLIKELY,RECOVERED,2025-02-25,2025-03-04
CLIN-2025-042,AE,CLIN-2025-042-SITE03-0288,890,Hypertension,Hypertension,Vascular disorders,MILD,N,NONE,UNLIKELY,NOT RECOVERED,2025-03-02,
CLIN-2025-042,AE,CLIN-2025-042-SITE03-0288,891,Tachycardia,Tachycardia,Cardiac disorders,SEVERE,N,DOSE REDUCED,PROBABLE,RECOVERING,2025-03-11,2025-03-19
CLIN-2025-042,AE,CLIN-2025-042-SITE03-0288,892,Pruritus,Pruritus,Skin and subcutaneous tissue disorders,MILD,N,NONE,PROBABLE,RECOVERED,2025-03-10,
CLIN-2025-042,AE,CLIN-2025-042-SITE03-0288,893,Insomnia,Insomnia,Nervous system disorders,MILD,N,TREATMENT WITHDRAWN,PROBABLE,FATAL,2025-03-10,2025-03-26
CLIN-2025-042,AE,CLIN-2025-042-SITE03-0288,894,Cough,Cough,"Respiratory, thoracic and mediastinal disorders",MODERATE,N,NONE,PROBABLE,RECOVERED,2025-02-28,2025-03-15
CLIN-2025-042,AE,CLIN-2025-042-SITE04-0289,895,Headache,Headache,Nervous system disorders,MILD,N,NONE,PROBABLE,NOT RECOVERED,2025-02-08,2025-02-20
CLIN-2025-042,AE,CLIN-2025-042-SITE04-0289,896,Insomnia,Insomnia,Nervous system disorders,MILD,N,NONE,UNLIKELY,RECOVERED,2025-02-14,2025-03-03
CLIN-2025-042,AE,CLIN-2025-042-SITE05-0290,897,Tachycardia,Tachycardia,Cardiac disorders,MILD,N,TREATMENT WITHDRAWN,UNLIKELY,RECOVERED,2025-07-27,2025-08-08
CLIN-2025-042,AE,CLIN-2025-042-SITE05-0290,898,Hypertension,Hypertension,Vascular disorders,MILD,N,NONE,PROBABLE,RECOVERED,2025-08-03,
CLIN-2025-042,AE,CLIN-2025-042-SITE05-0290,899,Back pain,Back pain,Musculoskeletal and connective tissue disorders,MILD,N,DOSE INCREASED,POSSIBLE,RECOVERED,2025-06-20,2025-07-01
CLIN-2025-042,AE,CLIN-2025-042-SITE05-0290,900,Vomiting,Vomiting,Gastrointestinal disorders,MODERATE,N,TREATMENT INTERRUPTED,VERY LIKELY,RECOVERED,2025-07-06,2025-07-24
CLIN-2025-042,AE,CLIN-2025-042-SITE01-0291,901,Dizziness,Dizziness,Nervous system disorders,MILD,N,NONE,UNLIKELY,RECOVERED,2025-02-25,
CLIN-2025-042,AE,CLIN-2025-042-SITE01-0291,902,Hypertension,Hypertension,Vascular disorders,MODERATE,N,TREATMENT INTERRUPTED,PROBABLE,RECOVERED,2025-02-22,2025-02-23
CLIN-2025-042,AE,CLIN-2025-042-SITE02-0292,903,Rash,Rash,Skin and subcutaneous tissue disorders,MODERATE,N,DOSE REDUCED,POSSIBLE,RECOVERED,2025-04-02,2025-04-20
CLIN-2025-042,AE,CLIN-2025-042-SITE02-0292,904,Insomnia,Insomnia,Nervous system disorders,MILD,N,DOSE INCREASED,POSSIBLE,RECOVERED,2025-03-21,2025-04-08
CLIN-2025-042,AE,CLIN-2025-042-SITE02-0292,905,Vomiting,Vomiting,Gastrointestinal disorders,MILD,Y,TREATMENT INTERRUPTED,PROBABLE,RECOVERED,2025-03-24,2025-03-27
CLIN-2025-042,AE,CLIN-2025-042-SITE03-0293,906,Hypertension,Hypertension,Vascular disorders,MODERATE,N,TREATMENT INTERRUPTED,POSSIBLE,RECOVERING,2025-07-06,2025-07-18
CLIN-2025-042,AE,CLIN-2025-042-SITE03-0293,907,Cough,Cough,"Respiratory, thoracic and mediastinal disorders",MODERATE,N,DOSE INCREASED,VERY LIKELY,RECOVERED,2025-06-16,
CLIN-2025-042,AE,CLIN-2025-042-SITE03-0293,908,Tachycardia,Tachycardia,Cardiac disorders,MILD,N,DOSE INCREASED,POSSIBLE,RECOVERED,2025-07-11,
CLIN-2025-042,AE,CLIN-2025-042-SITE03-0293,909,Dizziness,Dizziness,Nervous system disorders,MILD,N,DOSE INCREASED,VERY LIKELY,RECOVERED,2025-07-14,
CLIN-2025-042,AE,CLIN-2025-042-SITE03-0293,910,Abdominal pain,Abdominal pain,Gastrointestinal disorders,SEVERE,N,NONE,UNLIKELY,RECOVERED,2025-07-12,2025-07-28
CLIN-2025-042,AE,CLIN-2025-042-SITE04-0294,911,Constipation,Constipation,Gastrointestinal disorders,MILD,Y,DOSE INCREASED,POSSIBLE,NOT RECOVERED,2025-07-16,2025-07-21
CLIN-2025-042,AE,CLIN-2025-042-SITE04-0294,912,Back pain,Back pain,Musculoskeletal and connective tissue disorders,MILD,N,TREATMENT INTERRUPTED,PROBABLE,RECOVERED,2025-06-30,2025-07-15
CLIN-2025-042,AE,CLIN-2025-042-SITE05-0295,913,Tachycardia,Tachycardia,Cardiac disorders,MILD,N,NONE,VERY LIKELY,RECOVERED,2025-05-09,2025-05-14
CLIN-2025-042,AE,CLIN-2025-042-SITE05-0295,914,Dyspnea,Dyspnea,"Respiratory, thoracic and mediastinal disorders",MILD,N,DOSE INCREASED,PROBABLE,RECOVERED,2025-04-20,2025-04-29
CLIN-2025-042,AE,CLIN-2025-042-SITE05-0295,915,Pruritus,Pruritus,Skin and subcutaneous tissue disorders,MILD,N,DOSE REDUCED,UNLIKELY,RECOVERING,2025-05-20,
CLIN-2025-042,AE,CLIN-2025-042-SITE05-0295,916,Fatigue,Fatigue,General disorders and administration site conditions,MODERATE,N,DOSE INCREASED,VERY LIKELY,RECOVERING,2025-05-07,
CLIN-2025-042,AE,CLIN-2025-042-SITE01-0296,917,Vomiting,Vomiting,Gastrointestinal disorders,MILD,N,TREATMENT INTERRUPTED,PROBABLE,RECOVERED,2025-03-08,2025-03-12
CLIN-2025-042,AE,CLIN-2025-042-SITE01-0296,918,Dizziness,Dizziness,Nervous system disorders,MODERATE,N,NONE,POSSIBLE,NOT RECOVERED,2025-01-23,2025-02-03
CLIN-2025-042,AE,CLIN-2025-042-SITE01-0296,919,Fatigue,Fatigue,General disorders and administration site conditions,MILD,N,TREATMENT INTERRUPTED,VERY LIKELY,RECOVERED,2025-02-12,2025-02-19
CLIN-2025-042,AE,CLIN-2025-042-SITE02-0297,920,Insomnia,Insomnia,Nervous system disorders,SEVERE,N,DOSE INCREASED,POSSIBLE,RECOVERED,2025-06-14,2025-06-18
CLIN-2025-042,AE,CLIN-2025-042-SITE02-0297,921,Pruritus,Pruritus,Skin and subcutaneous tissue disorders,MILD,N,NONE,PROBABLE,RECOVERED,2025-07-06,2025-07-16
CLIN-2025-042,AE,CLIN-2025-042-SITE02-0297,922,Tremor,Tremor,Nervous system disorders,MILD,N,NONE,POSSIBLE,RECOVERED,2025-05-25,2025-06-07
CLIN-2025-042,AE,CLIN-2025-042-SITE02-0297,923,Constipation,Constipation,Gastrointestinal disorders,MILD,N,TREATMENT WITHDRAWN,POSSIBLE,RECOVERED,2025-06-18,2025-07-07
CLIN-2025-042,AE,CLIN-2025-042-SITE02-0297,924,Back pain,Back pain,Musculoskeletal and connective tissue disorders,MILD,N,DOSE INCREASED,PROBABLE,NOT RECOVERED,2025-06-23,2025-07-04
CLIN-2025-042,AE,CLIN-2025-042-SITE02-0297,925,Diarrhea,Diarrhea,Gastrointestinal disorders,MODERATE,N,NONE,POSSIBLE,RECOVERED,2025-07-05,2025-07-10
CLIN-2025-042,AE,CLIN-2025-042-SITE03-0298,926,Muscle pain,Muscle pain,Musculoskeletal and connective tissue disorders,MODERATE,N,TREATMENT WITHDRAWN,POSSIBLE,RECOVERED,2025-03-26,
CLIN-2025-042,AE,CLIN-2025-042-SITE03-0298,927,Muscle pain,Muscle pain,Musculoskeletal and connective tissue disorders,MILD,N,TREATMENT INTERRUPTED,VERY LIKELY,RECOVERED,2025-03-06,2025-03-10
CLIN-2025-042,AE,CLIN-2025-042-SITE03-0298,928,Insomnia,Insomnia,Nervous system disorders,MILD,N,DOSE REDUCED,POSSIBLE,RECOVERING,2025-03-06,2025-03-16
CLIN-2025-042,AE,CLIN-2025-042-SITE03-0298,929,Constipation,Constipation,Gastrointestinal disorders,MODERATE,N,DOSE INCREASED,UNLIKELY,RECOVERING,2025-03-24,2025-04-07
CLIN-2025-042,AE,CLIN-2025-042-SITE03-0298,930,Diarrhea,Diarrhea,Gastrointestinal disorders,MILD,N,TREATMENT WITHDRAWN,UNLIKELY,RECOVERED,2025-04-07,2025-04-24
CLIN-2025-042,AE,CLIN-2025-042-SITE04-0299,931,Abdominal pain,Abdominal pain,Gastrointestinal disorders,MODERATE,N,TREATMENT INTERRUPTED,VERY LIKELY,RECOVERED,2025-02-22,
CLIN-2025-042,AE,CLIN-2025-042-SITE05-0300,932,Fatigue,Fatigue,General disorders and administration site conditions,MODERATE,N,DOSE INCREASED,VERY LIKELY,RECOVERED,2025-05-24,2025-05-27
CLIN-2025-042,AE,CLIN-2025-042-SITE05-0300,933,Rash,Rash,Skin and subcutaneous tissue disorders,MILD,Y,TREATMENT WITHDRAWN,PROBABLE,RECOVERED,2025-06-13,2025-06-21
CLIN-2025-042,AE,CLIN-2025-042-SITE05-0300,934,Constipation,Constipation,Gastrointestinal disorders,MILD,Y,NONE,UNLIKELY,RECOVERED,2025-06-16,2025-06-21
CLIN-2025-042,AE,CLIN-2025-042-SITE05-0300,935,Dizziness,Dizziness,Nervous system disorders,MODERATE,N,TREATMENT WITHDRAWN,POSSIBLE,RECOVERED,2025-05-18,2025-06-06
CLIN-2025-042,AE,CLIN-2025-042-SITE01-0301,936,Tachycardia,Tachycardia,Cardiac disorders,MILD,N,DOSE REDUCED,PROBABLE,RECOVERED,2025-02-02,2025-02-08
CLIN-2025-042,AE,CLIN-2025-042-SITE01-0301,937,Pruritus,Pruritus,Skin and subcutaneous tissue disorders,MILD,N,TREATMENT WITHDRAWN,PROBABLE,RECOVERED,2025-02-19,2025-03-06
CLIN-2025-042,AE,CLIN-2025-042-SITE01-0301,938,Dizziness,Dizziness,Nervous system disorders,MILD,N,DOSE INCREASED,PROBABLE,RECOVERED,2025-02-11,2025-02-13
CLIN-2025-042,AE,CLIN-2025-042-SITE02-0302,939,Rash,Rash,Skin and subcutaneous tissue disorders,MILD,N,NONE,POSSIBLE,RECOVERED,2025-05-29,2025-05-30
CLIN-2025-042,AE,CLIN-2025-042-SITE02-0302,940,Constipation,Constipation,Gastrointestinal disorders,MODERATE,Y,DOSE INCREASED,POSSIBLE,RECOVERED,2025-06-08,2025-06-14
CLIN-2025-042,AE,CLIN-2025-042-SITE03-0303,941,Dizziness,Dizziness,Nervous system disorders,MILD,N,TREATMENT WITHDRAWN,VERY LIKELY,RECOVERED,2025-07-15,2025-07-25
CLIN-2025-042,AE,CLIN-2025-042-SITE03-0303,942,Cough,Cough,"Respiratory, thoracic and mediastinal disorders",MILD,N,TREATMENT INTERRUPTED,POSSIBLE,RECOVERED,2025-07-15,2025-07-19
CLIN-2025-042,AE,CLIN-2025-042-SITE04-0304,943,Back pain,Back pain,Musculoskeletal and connective tissue disorders,MILD,N,TREATMENT INTERRUPTED,POSSIBLE,RECOVERED,2025-06-09,2025-06-28
CLIN-2025-042,AE,CLIN-2025-042-SITE05-0305,944,Constipation,Constipation,Gastrointestinal disorders,SEVERE,N,DOSE REDUCED,POSSIBLE,RECOVERED,2025-05-04,
CLIN-2025-042,AE,CLIN-2025-042-SITE05-0305,945,Vomiting,Vomiting,Gastrointestinal disorders,MILD,N,DOSE INCREASED,UNLIKELY,RECOVERED,2025-04-13,
CLIN-2025-042,AE,CLIN-2025-042-SITE05-0305,946,Tachycardia,Tachycardia,Cardiac disorders,MILD,N,TREATMENT WITHDRAWN,PROBABLE,RECOVERED,2025-04-12,
CLIN-2025-042,AE,CLIN-2025-042-SITE05-0305,947,Muscle pain,Muscle pain,Musculoskeletal and connective tissue disorders,MODERATE,N,DOSE REDUCED,VERY LIKELY,RECOVERED,2025-04-12,2025-04-24
CLIN-2025-042,AE,CLIN-2025-042-SITE05-0305,948,Dyspnea,Dyspnea,"Respiratory, thoracic and mediastinal disorders",MILD,N,DOSE REDUCED,VERY LIKELY,RECOVERING,2025-03-31,
CLIN-2025-042,AE,CLIN-2025-042-SITE01-0306,949,Insomnia,Insomnia,Nervous system disorders,MODERATE,N,NONE,PROBABLE,RECOVERED,2025-05-23,2025-05-29
CLIN-2025-042,AE,CLIN-2025-042-SITE02-0307,950,Tremor,Tremor,Nervous system disorders,MODERATE,N,DOSE REDUCED,PROBABLE,NOT RECOVERED,2025-04-19,2025-04-29
CLIN-2025-042,AE,CLIN-2025-042-SITE02-0307,951,Constipation,Constipation,Gastrointestinal disorders,MILD,N,NONE,VERY LIKELY,RECOVERED,2025-04-20,
CLIN-2025-042,AE,CLIN-2025-042-SITE02-0307,952,Fatigue,Fatigue,General disorders and administration site conditions,MILD,N,TREATMENT WITHDRAWN,VERY LIKELY,RECOVERED,2025-04-25,2025-04-27
CLIN-2025-042,AE,CLIN-2025-042-SITE02-0307,953,Abdominal pain,Abdominal pain,Gastrointestinal disorders,MILD,N,DOSE INCREASED,POSSIBLE,RECOVERED,2025-05-14,
CLIN-2025-042,AE,CLIN-2025-042-SITE03-0308,954,Rash,Rash,Skin and subcutaneous tissue disorders,MILD,N,TREATMENT INTERRUPTED,PROBABLE,RECOVERING,2025-04-27,2025-05-09
CLIN-2025-042,AE,CLIN-2025-042-SITE03-0308,955,Fever,Fever,General disorders and administration site conditions,MILD,N,TREATMENT INTERRUPTED,POSSIBLE,RECOVERED,2025-04-27,2025-05-03
CLIN-2025-042,AE,CLIN-2025-042-SITE04-0309,956,Dyspnea,Dyspnea,"Respiratory, thoracic and mediastinal disorders",MILD,N,TREATMENT WITHDRAWN,UNLIKELY,RECOVERING,2025-03-18,2025-04-01
CLIN-2025-042,AE,CLIN-2025-042-SITE04-0309,957,Nausea,Nausea,Gastrointestinal disorders,MILD,N,TREATMENT WITHDRAWN,VERY LIKELY,NOT RECOVERED,2025-02-27,2025-03-13
CLIN-2025-042,AE,CLIN-2025-042-SITE04-0309,958,Cough,Cough,"Respiratory, thoracic and mediastinal disorders",MODERATE,N,NONE,PROBABLE,RECOVERED,2025-03-04,2025-03-06
CLIN-2025-042,AE,CLIN-2025-042-SITE04-0309,959,Tachycardia,Tachycardia,Cardiac disorders,MILD,N,NONE,UNLIKELY,RECOVERED,2025-02-24,
CLIN-2025-042,AE,CLIN-2025-042-SITE05-0310,960,Fatigue,Fatigue,General disorders and administration site conditions,MILD,N,DOSE INCREASED,VERY LIKELY,NOT RECOVERED,2025-05-20,2025-05-30
CLIN-2025-042,AE,CLIN-2025-042-SITE01-0311,961,Vomiting,Vomiting,Gastrointestinal disorders,MILD,N,DOSE REDUCED,UNLIKELY,RECOVERED,2025-04-06,
CLIN-2025-042,AE,CLIN-2025-042-SITE01-0311,962,Fatigue,Fatigue,General disorders and administration site conditions,MODERATE,N,NONE,POSSIBLE,RECOVERED,2025-04-01,2025-04-14
CLIN-2025-042,AE,CLIN-2025-042-SITE03-0313,963,Rash,Rash,Skin and subcutaneous tissue disorders,MODERATE,N,TREATMENT INTERRUPTED,POSSIBLE,RECOVERED,2025-07-16,2025-07-18
CLIN-2025-042,AE,CLIN-2025-042-SITE03-0313,964,Headache,Headache,Nervous system disorders,MILD,N,NONE,POSSIBLE,RECOVERED,2025-06-25,2025-06-30
CLIN-2025-042,AE,CLIN-2025-042-SITE03-0313,965,Hypertension,Hypertension,Vascular disorders,MILD,N,NONE,VERY LIKELY,RECOVERING,2025-07-18,2025-07-19
CLIN-2025-042,AE,CLIN-2025-042-SITE03-0313,966,Fever,Fever,General disorders and administration site conditions,MILD,N,TREATMENT WITHDRAWN,VERY LIKELY,RECOVERED,2025-07-10,
CLIN-2025-042,AE,CLIN-2025-042-SITE04-0314,967,Abdominal pain,Abdominal pain,Gastrointestinal disorders,MILD,Y,TREATMENT INTERRUPTED,POSSIBLE,RECOVERED,2025-04-10,2025-04-23
CLIN-2025-042,AE,CLIN-2025-042-SITE05-0315,968,Fever,Fever,General disorders and administration site conditions,MILD,N,TREATMENT WITHDRAWN,POSSIBLE,RECOVERED,2025-02-16,
CLIN-2025-042,AE,CLIN-2025-042-SITE05-0315,969,Hypertension,Hypertension,Vascular disorders,MILD,N,DOSE REDUCED,PROBABLE,RECOVERING,2025-03-18,
CLIN-2025-042,AE,CLIN-2025-042-SITE05-0315,970,Abdominal pain,Abdominal pain,Gastrointestinal disorders,MODERATE,N,TREATMENT WITHDRAWN,UNLIKELY,RECOVERED,2025-03-01,
CLIN-2025-042,AE,CLIN-2025-042-SITE01-0316,971,Back pain,Back pain,Musculoskeletal and connective tissue disorders,MILD,N,DOSE REDUCED,UNLIKELY,RECOVERED,2025-08-05,2025-08-08
CLIN-2025-042,AE,CLIN-2025-042-SITE01-0316,972,Back pain,Back pain,Musculoskeletal and connective tissue disorders,MILD,N,TREATMENT WITHDRAWN,PROBABLE,RECOVERING,2025-07-13,2025-07-19
CLIN-2025-042,AE,CLIN-2025-042-SITE01-0316,973,Fatigue,Fatigue,General disorders and administration site conditions,SEVERE,Y,TREATMENT WITHDRAWN,POSSIBLE,RECOVERED,2025-07-16,2025-07-26
CLIN-2025-042,AE,CLIN-2025-042-SITE02-0317,974,Vomiting,Vomiting,Gastrointestinal disorders,MODERATE,N,NONE,POSSIBLE,RECOVERED,2025-07-12,
CLIN-2025-042,AE,CLIN-2025-042-SITE02-0317,975,Abdominal pain,Abdominal pain,Gastrointestinal disorders,MODERATE,N,DOSE REDUCED,POSSIBLE,RECOVERED,2025-06-23,
CLIN-2025-042,AE,CLIN-2025-042-SITE02-0317,976,Diarrhea,Diarrhea,Gastrointestinal disorders,MILD,N,TREATMENT WITHDRAWN,POSSIBLE,RECOVERED,2025-06-23,2025-07-09
CLIN-2025-042,AE,CLIN-2025-042-SITE02-0317,977,Fever,Fever,General disorders and administration site conditions,SEVERE,N,NONE,VERY LIKELY,RECOVERING,2025-07-04,2025-07-21
CLIN-2025-042,AE,CLIN-2025-042-SITE03-0318,978,Tremor,Tremor,Nervous system disorders,MILD,N,TREATMENT INTERRUPTED,VERY LIKELY,RECOVERED,2025-03-20,2025-04-08
CLIN-2025-042,AE,CLIN-2025-042-SITE03-0318,979,Dyspnea,Dyspnea,"Respiratory, thoracic and mediastinal disorders",MILD,N,DOSE REDUCED,POSSIBLE,RECOVERED,2025-04-28,2025-05-09
CLIN-2025-042,AE,CLIN-2025-042-SITE04-0319,980,Back pain,Back pain,Musculoskeletal and connective tissue disorders,MILD,Y,NONE,UNLIKELY,RECOVERED,2025-05-25,2025-06-11
CLIN-2025-042,AE,CLIN-2025-042-SITE04-0319,981,Fatigue,Fatigue,General disorders and administration site conditions,SEVERE,N,DOSE INCREASED,POSSIBLE,RECOVERED,2025-06-17,2025-06-23
CLIN-2025-042,AE,CLIN-2025-042-SITE04-0319,982,Headache,Headache,Nervous system disorders,MILD,N,NONE,POSSIBLE,RECOVERED,2025-06-14,2025-07-01
CLIN-2025-042,AE,CLIN-2025-042-SITE04-0319,983,Diarrhea,Diarrhea,Gastrointestinal disorders,MILD,N,DOSE INCREASED,PROBABLE,RECOVERING,2025-05-21,2025-06-03
CLIN-2025-042,AE,CLIN-2025-042-SITE04-0319,984,Insomnia,Insomnia,Nervous system disorders,MODERATE,Y,DOSE REDUCED,POSSIBLE,RECOVERED,2025-06-30,2025-07-02
CLIN-2025-042,AE,CLIN-2025-042-SITE05-0320,985,Hypertension,Hypertension,Vascular disorders,MILD,N,NONE,POSSIBLE,RECOVERING,2025-05-25,2025-05-31
CLIN-2025-042,AE,CLIN-2025-042-SITE05-0320,986,Nausea,Nausea,Gastrointestinal disorders,MODERATE,Y,DOSE REDUCED,POSSIBLE,RECOVERED,2025-06-26,2025-06-30
CLIN-2025-042,AE,CLIN-2025-042-SITE05-0320,987,Hypertension,Hypertension,Vascular disorders,SEVERE,N,DOSE INCREASED,UNLIKELY,RECOVERED,2025-05-27,2025-06-01
CLIN-2025-042,AE,CLIN-2025-042-SITE01-0321,988,Dyspnea,Dyspnea,"Respiratory, thoracic and mediastinal disorders",MILD,N,DOSE INCREASED,POSSIBLE,RECOVERED,2025-06-21,2025-06-27
CLIN-2025-042,AE,CLIN-2025-042-SITE01-0321,989,Hypertension,Hypertension,Vascular disorders,MILD,N,DOSE INCREASED,UNLIKELY,RECOVERED,2025-06-25,2025-07-01
CLIN-2025-042,AE,CLIN-2025-042-SITE02-0322,990,Tremor,Tremor,Nervous system disorders,SEVERE,N,DOSE REDUCED,POSSIBLE,RECOVERED,2025-07-25,2025-07-28
CLIN-2025-042,AE,CLIN-2025-042-SITE03-0323,991,Back pain,Back pain,Musculoskeletal and connective tissue disorders,MILD,N,TREATMENT WITHDRAWN,VERY LIKELY,NOT RECOVERED,2025-08-04,2025-08-23
CLIN-2025-042,AE,CLIN-2025-042-SITE03-0323,992,Headache,Headache,Nervous system disorders,MILD,N,DOSE INCREASED,POSSIBLE,RECOVERED,2025-07-31,2025-08-08
CLIN-2025-042,AE,CLIN-2025-042-SITE03-0323,993,Dyspnea,Dyspnea,"Respiratory, thoracic and mediastinal disorders",MILD,N,NONE,POSSIBLE,RECOVERED,2025-07-25,
CLIN-2025-042,AE,CLIN-2025-042-SITE03-0323,994,Fever,Fever,General disorders and administration site conditions,MODERATE,N,TREATMENT WITHDRAWN,VERY LIKELY,RECOVERED,2025-08-24,2025-09-09
CLIN-2025-042,AE,CLIN-2025-042-SITE04-0324,995,Tachycardia,Tachycardia,Cardiac disorders,MILD,N,DOSE REDUCED,POSSIBLE,RECOVERED,2025-03-23,2025-03-27
CLIN-2025-042,AE,CLIN-2025-042-SITE05-0325,996,Fatigue,Fatigue,General disorders and administration site conditions,SEVERE,N,DOSE INCREASED,POSSIBLE,NOT RECOVERED,2025-06-27,2025-07-10
CLIN-2025-042,AE,CLIN-2025-042-SITE05-0325,997,Cough,Cough,"Respiratory, thoracic and mediastinal disorders",SEVERE,N,DOSE REDUCED,PROBABLE,RECOVERED,2025-06-16,2025-06-24
CLIN-2025-042,AE,CLIN-2025-042-SITE01-0326,998,Dizziness,Dizziness,Nervous system disorders,MODERATE,N,DOSE INCREASED,VERY LIKELY,RECOVERED,2025-02-22,2025-02-27
CLIN-2025-042,AE,CLIN-2025-042-SITE01-0326,999,Vomiting,Vomiting,Gastrointestinal disorders,MODERATE,N,DOSE INCREASED,POSSIBLE,RECOVERED,2025-02-22,
CLIN-2025-042,AE,CLIN-2025-042-SITE01-0326,1000,Dizziness,Dizziness,Nervous system disorders,MODERATE,N,DOSE REDUCED,PROBABLE,RECOVERED,2025-02-17,
CLIN-2025-042,AE,CLIN-2025-042-SITE01-0326,1001,Dizziness,Dizziness,Nervous system disorders,MILD,N,DOSE REDUCED,POSSIBLE,NOT RECOVERED,2025-02-06,
CLIN-2025-042,AE,CLIN-2025-042-SITE02-0327,1002,Hypertension,Hypertension,Vascular disorders,MILD,N,NONE,POSSIBLE,RECOVERED,2025-07-20,2025-07-22
CLIN-2025-042,AE,CLIN-2025-042-SITE02-0327,1003,Nausea,Nausea,Gastrointestinal disorders,MILD,N,NONE,VERY LIKELY,RECOVERING,2025-07-09,2025-07-26
CLIN-2025-042,AE,CLIN-2025-042-SITE03-0328,1004,Tremor,Tremor,Nervous system disorders,SEVERE,N,TREATMENT INTERRUPTED,PROBABLE,RECOVERED,2025-03-13,2025-03-15
CLIN-2025-042,AE,CLIN-2025-042-SITE04-0329,1005,Muscle pain,Muscle pain,Musculoskeletal and connective tissue disorders,MILD,N,TREATMENT WITHDRAWN,POSSIBLE,RECOVERED,2025-05-08,
CLIN-2025-042,AE,CLIN-2025-042-SITE04-0329,1006,Insomnia,Insomnia,Nervous system disorders,MILD,N,DOSE INCREASED,PROBABLE,NOT RECOVERED,2025-05-19,2025-06-01
CLIN-2025-042,AE,CLIN-2025-042-SITE04-0329,1007,Abdominal pain,Abdominal pain,Gastrointestinal disorders,MILD,N,DOSE REDUCED,UNLIKELY,NOT RECOVERED,2025-04-04,2025-04-18
CLIN-2025-042,AE,CLIN-2025-042-SITE04-0329,1008,Headache,Headache,Nervous system disorders,MILD,N,NONE,POSSIBLE,RECOVERING,2025-05-17,2025-05-23
CLIN-2025-042,AE,CLIN-2025-042-SITE01-0331,1009,Vomiting,Vomiting,Gastrointestinal disorders,MILD,N,DOSE INCREASED,UNLIKELY,UNKNOWN,2025-04-30,2025-05-19
CLIN-2025-042,AE,CLIN-2025-042-SITE01-0331,1010,Fatigue,Fatigue,General disorders and administration site conditions,MILD,N,TREATMENT WITHDRAWN,PROBABLE,RECOVERED,2025-03-23,2025-04-08
CLIN-2025-042,AE,CLIN-2025-042-SITE01-0331,1011,Dizziness,Dizziness,Nervous system disorders,MILD,N,DOSE INCREASED,POSSIBLE,RECOVERED,2025-04-12,2025-04-13
CLIN-2025-042,AE,CLIN-2025-042-SITE01-0331,1012,Dizziness,Dizziness,Nervous system disorders,MILD,N,DOSE INCREASED,PROBABLE,RECOVERED,2025-04-05,2025-04-17
CLIN-2025-042,AE,CLIN-2025-042-SITE01-0331,1013,Muscle pain,Muscle pain,Musculoskeletal and connective tissue disorders,MILD,N,TREATMENT WITHDRAWN,PROBABLE,RECOVERED,2025-04-06,
CLIN-2025-042,AE,CLIN-2025-042-SITE01-0331,1014,Dizziness,Dizziness,Nervous system disorders,MILD,N,TREATMENT WITHDRAWN,VERY LIKELY,RECOVERING,2025-04-12,2025-04-21
CLIN-2025-042,AE,CLIN-2025-042-SITE02-0332,1015,Nausea,Nausea,Gastrointestinal disorders,SEVERE,N,DOSE INCREASED,PROBABLE,RECOVERED,2025-05-01,2025-05-05
CLIN-2025-042,AE,CLIN-2025-042-SITE03-0333,1016,Nausea,Nausea,Gastrointestinal disorders,SEVERE,N,TREATMENT INTERRUPTED,POSSIBLE,RECOVERED,2025-04-21,2025-05-01
CLIN-2025-042,AE,CLIN-2025-042-SITE03-0333,1017,Back pain,Back pain,Musculoskeletal and connective tissue disorders,MODERATE,N,TREATMENT INTERRUPTED,POSSIBLE,RECOVERED,2025-04-22,2025-05-05
CLIN-2025-042,AE,CLIN-2025-042-SITE03-0333,1018,Dizziness,Dizziness,Nervous system disorders,MILD,N,TREATMENT WITHDRAWN,VERY LIKELY,RECOVERED,2025-05-08,2025-05-15
CLIN-2025-042,AE,CLIN-2025-042-SITE04-0334,1019,Headache,Headache,Nervous system disorders,MODERATE,N,NONE,VERY LIKELY,RECOVERED,2025-02-21,2025-03-10
CLIN-2025-042,AE,CLIN-2025-042-SITE04-0334,1020,Hypertension,Hypertension,Vascular disorders,MILD,N,TREATMENT WITHDRAWN,UNLIKELY,RECOVERING,2025-02-24,2025-03-06
CLIN-2025-042,AE,CLIN-2025-042-SITE04-0334,1021,Muscle pain,Muscle pain,Musculoskeletal and connective tissue disorders,MILD,N,NONE,POSSIBLE,RECOVERED,2025-02-13,
CLIN-2025-042,AE,CLIN-2025-042-SITE05-0335,1022,Tachycardia,Tachycardia,Cardiac disorders,MODERATE,N,TREATMENT INTERRUPTED,POSSIBLE,RECOVERED,2025-02-10,
CLIN-2025-042,AE,CLIN-2025-042-SITE05-0335,1023,Cough,Cough,"Respiratory, thoracic and mediastinal disorders",MODERATE,N,TREATMENT INTERRUPTED,PROBABLE,RECOVERED,2025-02-23,2025-02-25
CLIN-2025-042,AE,CLIN-2025-042-SITE01-0336,1024,Diarrhea,Diarrhea,Gastrointestinal disorders,MODERATE,N,NONE,POSSIBLE,RECOVERED,2025-04-16,2025-04-20
CLIN-2025-042,AE,CLIN-2025-042-SITE01-0336,1025,Tremor,Tremor,Nervous system disorders,MILD,N,NONE,VERY LIKELY,RECOVERED,2025-04-01,2025-04-14
CLIN-2025-042,AE,CLIN-2025-042-SITE02-0337,1026,Cough,Cough,"Respiratory, thoracic and mediastinal disorders",MODERATE,N,TREATMENT INTERRUPTED,POSSIBLE,RECOVERING,2025-07-15,2025-08-01
CLIN-2025-042,AE,CLIN-2025-042-SITE02-0337,1027,Vomiting,Vomiting,Gastrointestinal disorders,MILD,N,TREATMENT INTERRUPTED,PROBABLE,RECOVERED,2025-07-11,2025-07-19
CLIN-2025-042,AE,CLIN-2025-042-SITE02-0337,1028,Cough,Cough,"Respiratory, thoracic and mediastinal disorders",SEVERE,N,DOSE INCREASED,UNLIKELY,NOT RECOVERED,2025-06-12,
CLIN-2025-042,AE,CLIN-2025-042-SITE03-0338,1029,Pruritus,Pruritus,Skin and subcutaneous tissue disorders,MILD,N,DOSE INCREASED,POSSIBLE,RECOVERED,2025-03-05,2025-03-17
CLIN-2025-042,AE,CLIN-2025-042-SITE03-0338,1030,Cough,Cough,"Respiratory, thoracic and mediastinal disorders",MILD,N,TREATMENT INTERRUPTED,UNLIKELY,NOT RECOVERED,2025-02-23,2025-03-11
CLIN-2025-042,AE,CLIN-2025-042-SITE03-0338,1031,Insomnia,Insomnia,Nervous system disorders,SEVERE,N,TREATMENT WITHDRAWN,POSSIBLE,RECOVERED,2025-02-28,
CLIN-2025-042,AE,CLIN-2025-042-SITE03-0338,1032,Vomiting,Vomiting,Gastrointestinal disorders,MILD,Y,DOSE REDUCED,POSSIBLE,NOT RECOVERED,2025-03-25,2025-04-03
CLIN-2025-042,AE,CLIN-2025-042-SITE04-0339,1033,Fatigue,Fatigue,General disorders and administration site conditions,MILD,N,DOSE REDUCED,POSSIBLE,NOT RECOVERED,2025-04-30,2025-05-02
CLIN-2025-042,AE,CLIN-2025-042-SITE04-0339,1034,Pruritus,Pruritus,Skin and subcutaneous tissue disorders,MODERATE,N,DOSE REDUCED,POSSIBLE,RECOVERED,2025-05-03,2025-05-19
CLIN-2025-042,AE,CLIN-2025-042-SITE04-0339,1035,Fever,Fever,General disorders and administration site conditions,MODERATE,N,TREATMENT INTERRUPTED,POSSIBLE,UNKNOWN,2025-04-24,2025-04-26
CLIN-2025-042,AE,CLIN-2025-042-SITE05-0340,1036,Rash,Rash,Skin and subcutaneous tissue disorders,MODERATE,Y,TREATMENT INTERRUPTED,PROBABLE,RECOVERED,2025-01-30,2025-02-01
CLIN-2025-042,AE,CLIN-2025-042-SITE05-0340,1037,Fever,Fever,General disorders and administration site conditions,SEVERE,N,DOSE INCREASED,UNLIKELY,RECOVERING,2025-02-07,2025-02-08
CLIN-2025-042,AE,CLIN-2025-042-SITE01-0341,1038,Hypertension,Hypertension,Vascular disorders,MILD,N,TREATMENT WITHDRAWN,POSSIBLE,RECOVERED,2025-02-22,
CLIN-2025-042,AE,CLIN-2025-042-SITE01-0341,1039,Muscle pain,Muscle pain,Musculoskeletal and connective tissue disorders,SEVERE,N,NONE,POSSIBLE,RECOVERED,2025-02-27,
CLIN-2025-042,AE,CLIN-2025-042-SITE02-0342,1040,Nausea,Nausea,Gastrointestinal disorders,MILD,Y,TREATMENT WITHDRAWN,PROBABLE,NOT RECOVERED,2025-08-13,2025-08-19
CLIN-2025-042,AE,CLIN-2025-042-SITE02-0342,1041,Abdominal pain,Abdominal pain,Gastrointestinal disorders,MODERATE,N,DOSE REDUCED,POSSIBLE,RECOVERED,2025-07-14,2025-07-25
CLIN-2025-042,AE,CLIN-2025-042-SITE02-0342,1042,Hypertension,Hypertension,Vascular disorders,MILD,N,NONE,UNLIKELY,RECOVERED,2025-08-12,
CLIN-2025-042,AE,CLIN-2025-042-SITE02-0342,1043,Headache,Headache,Nervous system disorders,SEVERE,N,NONE,PROBABLE,RECOVERED,2025-07-24,2025-08-01
CLIN-2025-042,AE,CLIN-2025-042-SITE02-0342,1044,Rash,Rash,Skin and subcutaneous tissue disorders,MILD,N,TREATMENT INTERRUPTED,VERY LIKELY,RECOVERED,2025-07-13,2025-07-24
CLIN-2025-042,AE,CLIN-2025-042-SITE03-0343,1045,Hypertension,Hypertension,Vascular disorders,MILD,N,NONE,UNLIKELY,RECOVERING,2025-04-19,2025-04-29
CLIN-2025-042,AE,CLIN-2025-042-SITE03-0343,1046,Abdominal pain,Abdominal pain,Gastrointestinal disorders,MODERATE,N,TREATMENT INTERRUPTED,UNLIKELY,RECOVERED,2025-03-29,2025-04-16
CLIN-2025-042,AE,CLIN-2025-042-SITE03-0343,1047,Nausea,Nausea,Gastrointestinal disorders,MODERATE,Y,TREATMENT INTERRUPTED,PROBABLE,RECOVERED,2025-04-07,2025-04-23
CLIN-2025-042,AE,CLIN-2025-042-SITE03-0343,1048,Pruritus,Pruritus,Skin and subcutaneous tissue disorders,MILD,N,DOSE INCREASED,POSSIBLE,RECOVERED,2025-04-11,
CLIN-2025-042,AE,CLIN-2025-042-SITE03-0343,1049,Dizziness,Dizziness,Nervous system disorders,MILD,N,TREATMENT INTERRUPTED,POSSIBLE,UNKNOWN,2025-03-14,2025-03-29
CLIN-2025-042,AE,CLIN-2025-042-SITE03-0343,1050,Nausea,Nausea,Gastrointestinal disorders,MILD,N,TREATMENT INTERRUPTED,POSSIBLE,RECOVERED,2025-04-19,2025-05-06
CLIN-2025-042,AE,CLIN-2025-042-SITE04-0344,1051,Tachycardia,Tachycardia,Cardiac disorders,MODERATE,N,DOSE INCREASED,VERY LIKELY,RECOVERED,2025-04-10,2025-04-17
CLIN-2025-042,AE,CLIN-2025-042-SITE04-0344,1052,Rash,Rash,Skin and subcutaneous tissue disorders,MILD,N,NONE,VERY LIKELY,RECOVERING,2025-04-26,2025-05-05
CLIN-2025-042,AE,CLIN-2025-042-SITE05-0345,1053,Tachycardia,Tachycardia,Cardiac disorders,MODERATE,N,DOSE REDUCED,VERY LIKELY,RECOVERING,2025-04-08,2025-04-13
CLIN-2025-042,AE,CLIN-2025-042-SITE05-0345,1054,Abdominal pain,Abdominal pain,Gastrointestinal disorders,MODERATE,N,NONE,PROBABLE,RECOVERED,2025-03-09,2025-03-10
CLIN-2025-042,AE,CLIN-2025-042-SITE05-0345,1055,Pruritus,Pruritus,Skin and subcutaneous tissue disorders,MODERATE,N,TREATMENT INTERRUPTED,UNLIKELY,RECOVERED,2025-04-08,2025-04-16
CLIN-2025-042,AE,CLIN-2025-042-SITE01-0346,1056,Tremor,Tremor,Nervous system disorders,MODERATE,N,NONE,PROBABLE,RECOVERING,2025-06-30,
CLIN-2025-042,AE,CLIN-2025-042-SITE01-0346,1057,Cough,Cough,"Respiratory, thoracic and mediastinal disorders",MILD,N,DOSE REDUCED,VERY LIKELY,RECOVERED,2025-07-13,2025-07-31
CLIN-2025-042,AE,CLIN-2025-042-SITE01-0346,1058,Rash,Rash,Skin and subcutaneous tissue disorders,MODERATE,N,DOSE INCREASED,VERY LIKELY,RECOVERED,2025-07-04,
CLIN-2025-042,AE,CLIN-2025-042-SITE02-0347,1059,Dyspnea,Dyspnea,"Respiratory, thoracic and mediastinal disorders",MILD,N,NONE,PROBABLE,NOT RECOVERED,2025-05-05,2025-05-21
CLIN-2025-042,AE,CLIN-2025-042-SITE02-0347,1060,Pruritus,Pruritus,Skin and subcutaneous tissue disorders,MILD,N,DOSE REDUCED,POSSIBLE,UNKNOWN,2025-05-04,2025-05-16
CLIN-2025-042,AE,CLIN-2025-042-SITE03-0348,1061,Diarrhea,Diarrhea,Gastrointestinal disorders,MODERATE,N,DOSE INCREASED,PROBABLE,RECOVERED,2025-03-04,
CLIN-2025-042,AE,CLIN-2025-042-SITE03-0348,1062,Back pain,Back pain,Musculoskeletal and connective tissue disorders,MILD,Y,TREATMENT WITHDRAWN,PROBABLE,RECOVERING,2025-02-28,2025-03-07
CLIN-2025-042,AE,CLIN-2025-042-SITE03-0348,1063,Constipation,Constipation,Gastrointestinal disorders,SEVERE,N,DOSE INCREASED,UNLIKELY,RECOVERED,2025-01-29,2025-02-06
CLIN-2025-042,AE,CLIN-2025-042-SITE03-0348,1064,Headache,Headache,Nervous system disorders,MODERATE,N,NONE,POSSIBLE,RECOVERED,2025-03-04,2025-03-12
CLIN-2025-042,AE,CLIN-2025-042-SITE04-0349,1065,Diarrhea,Diarrhea,Gastrointestinal disorders,MODERATE,Y,DOSE INCREASED,POSSIBLE,RECOVERING,2025-05-03,
CLIN-2025-042,AE,CLIN-2025-042-SITE04-0349,1066,Insomnia,Insomnia,Nervous system disorders,MILD,N,TREATMENT WITHDRAWN,UNLIKELY,RECOVERED,2025-05-02,2025-05-18
CLIN-2025-042,AE,CLIN-2025-042-SITE04-0349,1067,Constipation,Constipation,Gastrointestinal disorders,MILD,N,DOSE INCREASED,PROBABLE,RECOVERED,2025-05-08,2025-05-21
CLIN-2025-042,AE,CLIN-2025-042-SITE05-0350,1068,Tachycardia,Tachycardia,Cardiac disorders,MILD,N,TREATMENT INTERRUPTED,VERY LIKELY,RECOVERED,2025-04-23,2025-05-05
CLIN-2025-042,AE,CLIN-2025-042-SITE01-0351,1069,Headache,Headache,Nervous system disorders,MILD,N,TREATMENT WITHDRAWN,POSSIBLE,UNKNOWN,2025-02-26,
CLIN-2025-042,AE,CLIN-2025-042-SITE01-0351,1070,Fever,Fever,General disorders and administration site conditions,MILD,N,DOSE REDUCED,UNLIKELY,RECOVERED,2025-03-26,2025-03-28
CLIN-2025-042,AE,CLIN-2025-042-SITE01-0351,1071,Muscle pain,Muscle pain,Musculoskeletal and connective tissue disorders,MILD,N,DOSE INCREASED,POSSIBLE,RECOVERED,2025-03-22,2025-04-05
CLIN-2025-042,AE,CLIN-2025-042-SITE01-0351,1072,Dyspnea,Dyspnea,"Respiratory, thoracic and mediastinal disorders",MILD,Y,DOSE INCREASED,POSSIBLE,RECOVERED,2025-03-14,2025-03-30
CLIN-2025-042,AE,CLIN-2025-042-SITE02-0352,1073,Nausea,Nausea,Gastrointestinal disorders,MILD,N,DOSE REDUCED,PROBABLE,RECOVERED,2025-03-31,2025-04-15
CLIN-2025-042,AE,CLIN-2025-042-SITE02-0352,1074,Dizziness,Dizziness,Nervous system disorders,MILD,N,TREATMENT WITHDRAWN,UNLIKELY,RECOVERED,2025-04-08,2025-04-21
CLIN-2025-042,AE,CLIN-2025-042-SITE02-0352,1075,Headache,Headache,Nervous system disorders,MILD,Y,TREATMENT WITHDRAWN,PROBABLE,RECOVERED,2025-03-27,
CLIN-2025-042,AE,CLIN-2025-042-SITE03-0353,1076,Headache,Headache,Nervous system disorders,MILD,N,DOSE REDUCED,PROBABLE,RECOVERED,2025-07-09,
CLIN-2025-042,AE,CLIN-2025-042-SITE03-0353,1077,Insomnia,Insomnia,Nervous system disorders,MILD,N,NONE,PROBABLE,UNKNOWN,2025-07-12,2025-07-22
CLIN-2025-042,AE,CLIN-2025-042-SITE03-0353,1078,Abdominal pain,Abdominal pain,Gastrointestinal disorders,MODERATE,N,NONE,UNLIKELY,RECOVERED,2025-07-15,
CLIN-2025-042,AE,CLIN-2025-042-SITE03-0353,1079,Dyspnea,Dyspnea,"Respiratory, thoracic and mediastinal disorders",SEVERE,N,DOSE INCREASED,POSSIBLE,RECOVERING,2025-07-16,
CLIN-2025-042,AE,CLIN-2025-042-SITE03-0353,1080,Insomnia,Insomnia,Nervous system disorders,MILD,N,DOSE REDUCED,POSSIBLE,RECOVERED,2025-07-05,2025-07-11
CLIN-2025-042,AE,CLIN-2025-042-SITE03-0353,1081,Rash,Rash,Skin and subcutaneous tissue disorders,MODERATE,N,TREATMENT WITHDRAWN,PROBABLE,RECOVERED,2025-06-10,2025-06-16
CLIN-2025-042,AE,CLIN-2025-042-SITE03-0353,1082,Dyspnea,Dyspnea,"Respiratory, thoracic and mediastinal disorders",MILD,N,TREATMENT WITHDRAWN,POSSIBLE,RECOVERED,2025-06-29,2025-07-15
CLIN-2025-042,AE,CLIN-2025-042-SITE04-0354,1083,Dizziness,Dizziness,Nervous system disorders,MILD,N,TREATMENT WITHDRAWN,POSSIBLE,RECOVERING,2025-06-04,2025-06-18
CLIN-2025-042,AE,CLIN-2025-042-SITE04-0354,1084,Muscle pain,Muscle pain,Musculoskeletal and connective tissue disorders,MILD,N,TREATMENT INTERRUPTED,VERY LIKELY,RECOVERING,2025-05-12,2025-05-17
CLIN-2025-042,AE,CLIN-2025-042-SITE05-0355,1085,Insomnia,Insomnia,Nervous system disorders,MILD,N,DOSE REDUCED,UNLIKELY,RECOVERING,2025-03-07,
CLIN-2025-042,AE,CLIN-2025-042-SITE05-0355,1086,Tachycardia,Tachycardia,Cardiac disorders,MODERATE,N,DOSE INCREASED,PROBABLE,RECOVERED,2025-02-19,2025-03-10
CLIN-2025-042,AE,CLIN-2025-042-SITE05-0355,1087,Dyspnea,Dyspnea,"Respiratory, thoracic and mediastinal disorders",MILD,N,DOSE INCREASED,UNLIKELY,RECOVERED,2025-02-22,2025-03-06
CLIN-2025-042,AE,CLIN-2025-042-SITE05-0355,1088,Dizziness,Dizziness,Nervous system disorders,MODERATE,N,TREATMENT INTERRUPTED,POSSIBLE,RECOVERED,2025-03-07,2025-03-14
CLIN-2025-042,AE,CLIN-2025-042-SITE01-0356,1089,Pruritus,Pruritus,Skin and subcutaneous tissue disorders,MODERATE,N,TREATMENT INTERRUPTED,POSSIBLE,UNKNOWN,2025-06-01,2025-06-18
CLIN-2025-042,AE,CLIN-2025-042-SITE03-0358,1090,Fatigue,Fatigue,General disorders and administration site conditions,MILD,N,NONE,PROBABLE,RECOVERED,2025-08-01,2025-08-18
CLIN-2025-042,AE,CLIN-2025-042-SITE03-0358,1091,Abdominal pain,Abdominal pain,Gastrointestinal disorders,MODERATE,N,TREATMENT INTERRUPTED,POSSIBLE,RECOVERED,2025-07-11,2025-07-24
CLIN-2025-042,AE,CLIN-2025-042-SITE05-0360,1092,Diarrhea,Diarrhea,Gastrointestinal disorders,MODERATE,N,DOSE INCREASED,UNLIKELY,RECOVERED,2025-04-03,2025-04-14
CLIN-2025-042,AE,CLIN-2025-042-SITE01-0361,1093,Tachycardia,Tachycardia,Cardiac disorders,MODERATE,N,DOSE INCREASED,POSSIBLE,RECOVERED,2025-02-17,2025-03-04
CLIN-2025-042,AE,CLIN-2025-042-SITE01-0361,1094,Insomnia,Insomnia,Nervous system disorders,MILD,N,DOSE INCREASED,POSSIBLE,RECOVERED,2025-03-05,
CLIN-2025-042,AE,CLIN-2025-042-SITE01-0361,1095,Fever,Fever,General disorders and administration site conditions,MODERATE,N,DOSE INCREASED,UNLIKELY,RECOVERED,2025-02-26,2025-03-05
CLIN-2025-042,AE,CLIN-2025-042-SITE01-0361,1096,Tremor,Tremor,Nervous system disorders,MILD,N,DOSE REDUCED,POSSIBLE,RECOVERING,2025-03-11,
CLIN-2025-042,AE,CLIN-2025-042-SITE01-0361,1097,Constipation,Constipation,Gastrointestinal disorders,MILD,N,DOSE REDUCED,PROBABLE,RECOVERED,2025-02-26,2025-03-14
CLIN-2025-042,AE,CLIN-2025-042-SITE02-0362,1098,Tachycardia,Tachycardia,Cardiac disorders,MILD,N,TREATMENT WITHDRAWN,UNLIKELY,RECOVERED,2025-05-18,2025-06-01
CLIN-2025-042,AE,CLIN-2025-042-SITE02-0362,1099,Fever,Fever,General disorders and administration site conditions,MODERATE,N,TREATMENT INTERRUPTED,VERY LIKELY,RECOVERED,2025-06-13,2025-06-15
CLIN-2025-042,AE,CLIN-2025-042-SITE02-0362,1100,Nausea,Nausea,Gastrointestinal disorders,MILD,N,TREATMENT WITHDRAWN,PROBABLE,RECOVERED,2025-05-25,2025-06-09
CLIN-2025-042,AE,CLIN-2025-042-SITE02-0362,1101,Vomiting,Vomiting,Gastrointestinal disorders,MILD,N,DOSE INCREASED,POSSIBLE,RECOVERED,2025-05-24,2025-06-11
CLIN-2025-042,AE,CLIN-2025-042-SITE02-0362,1102,Tachycardia,Tachycardia,Cardiac disorders,MILD,N,TREATMENT WITHDRAWN,PROBABLE,RECOVERED,2025-05-23,2025-06-02
CLIN-2025-042,AE,CLIN-2025-042-SITE03-0363,1103,Tachycardia,Tachycardia,Cardiac disorders,MODERATE,Y,TREATMENT WITHDRAWN,UNLIKELY,RECOVERED,2025-08-08,2025-08-12
CLIN-2025-042,AE,CLIN-2025-042-SITE03-0363,1104,Vomiting,Vomiting,Gastrointestinal disorders,MODERATE,N,DOSE REDUCED,UNLIKELY,RECOVERED,2025-08-02,2025-08-03
CLIN-2025-042,AE,CLIN-2025-042-SITE03-0363,1105,Fever,Fever,General disorders and administration site conditions,SEVERE,N,NONE,UNLIKELY,RECOVERED,2025-07-06,
CLIN-2025-042,AE,CLIN-2025-042-SITE03-0363,1106,Cough,Cough,"Respiratory, thoracic and mediastinal disorders",SEVERE,N,NONE,PROBABLE,RECOVERED,2025-07-23,2025-07-27
CLIN-2025-042,AE,CLIN-2025-042-SITE03-0363,1107,Fever,Fever,General disorders and administration site conditions,MODERATE,N,DOSE INCREASED,UNLIKELY,RECOVERING,2025-08-08,2025-08-26
CLIN-2025-042,AE,CLIN-2025-042-SITE03-0363,1108,Abdominal pain,Abdominal pain,Gastrointestinal disorders,MODERATE,N,NONE,PROBABLE,RECOVERED,2025-07-15,
CLIN-2025-042,AE,CLIN-2025-042-SITE04-0364,1109,Fatigue,Fatigue,General disorders and administration site conditions,SEVERE,N,TREATMENT WITHDRAWN,PROBABLE,RECOVERING,2025-06-07,2025-06-20
CLIN-2025-042,AE,CLIN-2025-042-SITE05-0365,1110,Dyspnea,Dyspnea,"Respiratory, thoracic and mediastinal disorders",MILD,N,DOSE REDUCED,PROBABLE,RECOVERING,2025-02-24,
CLIN-2025-042,AE,CLIN-2025-042-SITE05-0365,1111,Dyspnea,Dyspnea,"Respiratory, thoracic and mediastinal disorders",MILD,N,DOSE INCREASED,PROBABLE,RECOVERED,2025-03-07,2025-03-20
CLIN-2025-042,AE,CLIN-2025-042-SITE05-0365,1112,Fatigue,Fatigue,General disorders and administration site conditions,SEVERE,Y,TREATMENT INTERRUPTED,PROBABLE,RECOVERED,2025-03-21,
CLIN-2025-042,AE,CLIN-2025-042-SITE01-0366,1113,Pruritus,Pruritus,Skin and subcutaneous tissue disorders,MILD,Y,TREATMENT INTERRUPTED,UNLIKELY,RECOVERED,2025-06-12,2025-07-01
CLIN-2025-042,AE,CLIN-2025-042-SITE01-0366,1114,Cough,Cough,"Respiratory, thoracic and mediastinal disorders",MILD,N,DOSE INCREASED,UNLIKELY,FATAL,2025-07-05,2025-07-18
CLIN-2025-042,AE,CLIN-2025-042-SITE02-0367,1115,Tachycardia,Tachycardia,Cardiac disorders,MILD,Y,DOSE REDUCED,VERY LIKELY,RECOVERED,2025-06-28,
CLIN-2025-042,AE,CLIN-2025-042-SITE02-0367,1116,Insomnia,Insomnia,Nervous system disorders,MODERATE,N,DOSE REDUCED,POSSIBLE,RECOVERING,2025-07-03,
CLIN-2025-042,AE,CLIN-2025-042-SITE02-0367,1117,Dizziness,Dizziness,Nervous system disorders,MILD,N,DOSE REDUCED,POSSIBLE,RECOVERED,2025-07-02,
CLIN-2025-042,AE,CLIN-2025-042-SITE03-0368,1118,Nausea,Nausea,Gastrointestinal disorders,MILD,N,TREATMENT WITHDRAWN,VERY LIKELY,RECOVERED,2025-06-09,2025-06-27
CLIN-2025-042,AE,CLIN-2025-042-SITE03-0368,1119,Cough,Cough,"Respiratory, thoracic and mediastinal disorders",MODERATE,N,TREATMENT WITHDRAWN,POSSIBLE,RECOVERED,2025-06-25,
CLIN-2025-042,AE,CLIN-2025-042-SITE03-0368,1120,Fatigue,Fatigue,General disorders and administration site conditions,MILD,N,DOSE REDUCED,PROBABLE,RECOVERED,2025-06-28,
CLIN-2025-042,AE,CLIN-2025-042-SITE03-0368,1121,Rash,Rash,Skin and subcutaneous tissue disorders,MILD,N,NONE,POSSIBLE,RECOVERED,2025-06-19,2025-06-22
CLIN-2025-042,AE,CLIN-2025-042-SITE04-0369,1122,Muscle pain,Muscle pain,Musculoskeletal and connective tissue disorders,MILD,N,DOSE INCREASED,PROBABLE,RECOVERED,2025-05-24,2025-05-28
CLIN-2025-042,AE,CLIN-2025-042-SITE04-0369,1123,Cough,Cough,"Respiratory, thoracic and mediastinal disorders",MILD,N,TREATMENT WITHDRAWN,UNLIKELY,RECOVERED,2025-05-24,2025-06-01
CLIN-2025-042,AE,CLIN-2025-042-SITE04-0369,1124,Headache,Headache,Nervous system disorders,MILD,N,DOSE INCREASED,POSSIBLE,RECOVERING,2025-04-13,2025-05-01
CLIN-2025-042,AE,CLIN-2025-042-SITE04-0369,1125,Nausea,Nausea,Gastrointestinal disorders,MILD,N,DOSE INCREASED,VERY LIKELY,NOT RECOVERED,2025-04-10,2025-04-15
CLIN-2025-042,AE,CLIN-2025-042-SITE05-0370,1126,Fatigue,Fatigue,General disorders and administration site conditions,MILD,N,TREATMENT WITHDRAWN,POSSIBLE,UNKNOWN,2025-05-08,2025-05-09
CLIN-2025-042,AE,CLIN-2025-042-SITE05-0370,1127,Pruritus,Pruritus,Skin and subcutaneous tissue disorders,MILD,N,TREATMENT WITHDRAWN,POSSIBLE,NOT RECOVERED,2025-05-08,2025-05-15
CLIN-2025-042,AE,CLIN-2025-042-SITE05-0370,1128,Muscle pain,Muscle pain,Musculoskeletal and connective tissue disorders,MODERATE,N,DOSE INCREASED,POSSIBLE,RECOVERED,2025-06-12,2025-06-15
CLIN-2025-042,AE,CLIN-2025-042-SITE01-0371,1129,Back pain,Back pain,Musculoskeletal and connective tissue disorders,MODERATE,N,DOSE REDUCED,POSSIBLE,RECOVERED,2025-03-18,2025-03-28
CLIN-2025-042,AE,CLIN-2025-042-SITE02-0372,1130,Hypertension,Hypertension,Vascular disorders,MODERATE,N,NONE,POSSIBLE,RECOVERED,2025-04-06,
CLIN-2025-042,AE,CLIN-2025-042-SITE02-0372,1131,Dizziness,Dizziness,Nervous system disorders,MODERATE,N,NONE,UNLIKELY,RECOVERED,2025-04-23,2025-05-07
CLIN-2025-042,AE,CLIN-2025-042-SITE02-0372,1132,Pruritus,Pruritus,Skin and subcutaneous tissue disorders,MILD,N,NONE,UNLIKELY,RECOVERED,2025-05-03,
CLIN-2025-042,AE,CLIN-2025-042-SITE03-0373,1133,Fever,Fever,General disorders and administration site conditions,MILD,N,NONE,POSSIBLE,UNKNOWN,2025-04-02,2025-04-18
CLIN-2025-042,AE,CLIN-2025-042-SITE03-0373,1134,Insomnia,Insomnia,Nervous system disorders,MILD,N,DOSE REDUCED,PROBABLE,RECOVERED,2025-04-25,2025-05-08
CLIN-2025-042,AE,CLIN-2025-042-SITE03-0373,1135,Fever,Fever,General disorders and administration site conditions,SEVERE,Y,TREATMENT WITHDRAWN,VERY LIKELY,RECOVERED,2025-04-21,2025-05-03
CLIN-2025-042,AE,CLIN-2025-042-SITE03-0373,1136,Tachycardia,Tachycardia,Cardiac disorders,MILD,N,NONE,UNLIKELY,RECOVERED,2025-03-27,2025-04-02
CLIN-2025-042,AE,CLIN-2025-042-SITE03-0373,1137,Fever,Fever,General disorders and administration site conditions,MILD,N,TREATMENT INTERRUPTED,UNLIKELY,RECOVERED,2025-04-17,2025-04-28
CLIN-2025-042,AE,CLIN-2025-042-SITE04-0374,1138,Nausea,Nausea,Gastrointestinal disorders,MODERATE,N,TREATMENT WITHDRAWN,VERY LIKELY,RECOVERED,2025-08-29,
CLIN-2025-042,AE,CLIN-2025-042-SITE04-0374,1139,Rash,Rash,Skin and subcutaneous tissue disorders,SEVERE,N,TREATMENT INTERRUPTED,POSSIBLE,RECOVERING,2025-08-13,2025-08-25
CLIN-2025-042,AE,CLIN-2025-042-SITE05-0375,1140,Diarrhea,Diarrhea,Gastrointestinal disorders,MILD,N,TREATMENT INTERRUPTED,PROBABLE,RECOVERED,2025-07-10,2025-07-14
CLIN-2025-042,AE,CLIN-2025-042-SITE05-0375,1141,Headache,Headache,Nervous system disorders,MILD,Y,DOSE REDUCED,POSSIBLE,RECOVERING,2025-07-15,2025-07-26
CLIN-2025-042,AE,CLIN-2025-042-SITE05-0375,1142,Tremor,Tremor,Nervous system disorders,MILD,N,DOSE INCREASED,VERY LIKELY,RECOVERED,2025-05-30,2025-06-06
CLIN-2025-042,AE,CLIN-2025-042-SITE05-0375,1143,Tachycardia,Tachycardia,Cardiac disorders,MILD,N,DOSE INCREASED,PROBABLE,RECOVERED,2025-07-14,2025-07-18
CLIN-2025-042,AE,CLIN-2025-042-SITE01-0376,1144,Muscle pain,Muscle pain,Musculoskeletal and connective tissue disorders,MILD,N,NONE,POSSIBLE,RECOVERED,2025-07-17,2025-07-29
CLIN-2025-042,AE,CLIN-2025-042-SITE01-0376,1145,Fatigue,Fatigue,General disorders and administration site conditions,MILD,Y,DOSE INCREASED,POSSIBLE,RECOVERED,2025-07-14,
CLIN-2025-042,AE,CLIN-2025-042-SITE01-0376,1146,Cough,Cough,"Respiratory, thoracic and mediastinal disorders",MODERATE,N,TREATMENT WITHDRAWN,PROBABLE,RECOVERED,2025-07-25,2025-08-10
CLIN-2025-042,AE,CLIN-2025-042-SITE01-0376,1147,Rash,Rash,Skin and subcutaneous tissue disorders,MODERATE,N,DOSE REDUCED,UNLIKELY,RECOVERED,2025-07-16,2025-07-18
CLIN-2025-042,AE,CLIN-2025-042-SITE02-0377,1148,Nausea,Nausea,Gastrointestinal disorders,MILD,N,DOSE REDUCED,UNLIKELY,RECOVERED,2025-08-12,2025-08-28
CLIN-2025-042,AE,CLIN-2025-042-SITE03-0378,1149,Constipation,Constipation,Gastrointestinal disorders,MILD,N,DOSE INCREASED,POSSIBLE,RECOVERED,2025-04-01,
CLIN-2025-042,AE,CLIN-2025-042-SITE03-0378,1150,Fever,Fever,General disorders and administration site conditions,MODERATE,N,DOSE REDUCED,PROBABLE,RECOVERED,2025-02-17,2025-02-22
CLIN-2025-042,AE,CLIN-2025-042-SITE04-0379,1151,Rash,Rash,Skin and subcutaneous tissue disorders,SEVERE,N,TREATMENT INTERRUPTED,PROBABLE,RECOVERING,2025-02-27,2025-03-16
CLIN-2025-042,AE,CLIN-2025-042-SITE04-0379,1152,Dizziness,Dizziness,Nervous system disorders,MODERATE,N,NONE,POSSIBLE,RECOVERED,2025-02-26,2025-03-10
CLIN-2025-042,AE,CLIN-2025-042-SITE04-0379,1153,Back pain,Back pain,Musculoskeletal and connective tissue disorders,MILD,N,NONE,POSSIBLE,RECOVERED,2025-02-23,2025-03-06
CLIN-2025-042,AE,CLIN-2025-042-SITE04-0379,1154,Dizziness,Dizziness,Nervous system disorders,MILD,N,DOSE REDUCED,PROBABLE,UNKNOWN,2025-03-06,
CLIN-2025-042,AE,CLIN-2025-042-SITE04-0379,1155,Headache,Headache,Nervous system disorders,MILD,N,NONE,POSSIBLE,RECOVERING,2025-04-02,2025-04-18
CLIN-2025-042,AE,CLIN-2025-042-SITE05-0380,1156,Nausea,Nausea,Gastrointestinal disorders,MILD,N,DOSE REDUCED,UNLIKELY,RECOVERED,2025-07-01,2025-07-13
CLIN-2025-042,AE,CLIN-2025-042-SITE05-0380,1157,Cough,Cough,"Respiratory, thoracic and mediastinal disorders",MILD,N,DOSE REDUCED,VERY LIKELY,RECOVERED,2025-07-10,
CLIN-2025-042,AE,CLIN-2025-042-SITE01-0381,1158,Pruritus,Pruritus,Skin and subcutaneous tissue disorders,MODERATE,N,DOSE INCREASED,POSSIBLE,RECOVERED,2025-02-23,2025-03-11
CLIN-2025-042,AE,CLIN-2025-042-SITE01-0381,1159,Rash,Rash,Skin and subcutaneous tissue disorders,MODERATE,N,TREATMENT WITHDRAWN,POSSIBLE,RECOVERED,2025-02-26,2025-03-17
CLIN-2025-042,AE,CLIN-2025-042-SITE01-0381,1160,Hypertension,Hypertension,Vascular disorders,MILD,N,TREATMENT WITHDRAWN,POSSIBLE,RECOVERED,2025-02-13,2025-03-02
CLIN-2025-042,AE,CLIN-2025-042-SITE02-0382,1161,Tremor,Tremor,Nervous system disorders,MILD,N,NONE,POSSIBLE,RECOVERED,2025-07-24,2025-08-01
CLIN-2025-042,AE,CLIN-2025-042-SITE02-0382,1162,Dyspnea,Dyspnea,"Respiratory, thoracic and mediastinal disorders",MILD,N,NONE,UNLIKELY,RECOVERING,2025-07-27,2025-08-06
CLIN-2025-042,AE,CLIN-2025-042-SITE03-0383,1163,Dizziness,Dizziness,Nervous system disorders,MILD,N,DOSE REDUCED,POSSIBLE,RECOVERED,2025-06-12,
CLIN-2025-042,AE,CLIN-2025-042-SITE04-0384,1164,Headache,Headache,Nervous system disorders,MILD,Y,DOSE REDUCED,POSSIBLE,RECOVERED,2025-03-21,
CLIN-2025-042,AE,CLIN-2025-042-SITE04-0384,1165,Abdominal pain,Abdominal pain,Gastrointestinal disorders,MILD,N,DOSE REDUCED,POSSIBLE,RECOVERED,2025-03-18,2025-04-01
CLIN-2025-042,AE,CLIN-2025-042-SITE04-0384,1166,Fever,Fever,General disorders and administration site conditions,MODERATE,N,DOSE REDUCED,PROBABLE,RECOVERED,2025-02-24,2025-03-09
CLIN-2025-042,AE,CLIN-2025-042-SITE05-0385,1167,Muscle pain,Muscle pain,Musculoskeletal and connective tissue disorders,MILD,N,TREATMENT INTERRUPTED,POSSIBLE,RECOVERED,2025-05-16,2025-05-30
CLIN-2025-042,AE,CLIN-2025-042-SITE05-0385,1168,Muscle pain,Muscle pain,Musculoskeletal and connective tissue disorders,SEVERE,N,DOSE REDUCED,PROBABLE,RECOVERING,2025-05-14,2025-05-18
CLIN-2025-042,AE,CLIN-2025-042-SITE05-0385,1169,Tachycardia,Tachycardia,Cardiac disorders,SEVERE,N,TREATMENT INTERRUPTED,VERY LIKELY,RECOVERED,2025-05-27,2025-06-03
CLIN-2025-042,AE,CLIN-2025-042-SITE01-0386,1170,Diarrhea,Diarrhea,Gastrointestinal disorders,MILD,N,TREATMENT INTERRUPTED,POSSIBLE,RECOVERED,2025-04-05,2025-04-20
CLIN-2025-042,AE,CLIN-2025-042-SITE01-0386,1171,Tachycardia,Tachycardia,Cardiac disorders,MODERATE,N,DOSE INCREASED,POSSIBLE,RECOVERED,2025-04-09,2025-04-10
CLIN-2025-042,AE,CLIN-2025-042-SITE02-0387,1172,Fever,Fever,General disorders and administration site conditions,MILD,N,DOSE INCREASED,POSSIBLE,RECOVERING,2025-04-01,2025-04-12
CLIN-2025-042,AE,CLIN-2025-042-SITE02-0387,1173,Rash,Rash,Skin and subcutaneous tissue disorders,MODERATE,N,NONE,POSSIBLE,RECOVERED,2025-04-02,2025-04-03
CLIN-2025-042,AE,CLIN-2025-042-SITE02-0387,1174,Diarrhea,Diarrhea,Gastrointestinal disorders,MILD,Y,DOSE REDUCED,PROBABLE,RECOVERED,2025-04-05,2025-04-18
CLIN-2025-042,AE,CLIN-2025-042-SITE02-0387,1175,Cough,Cough,"Respiratory, thoracic and mediastinal disorders",SEVERE,N,DOSE INCREASED,POSSIBLE,RECOVERED,2025-03-22,
CLIN-2025-042,AE,CLIN-2025-042-SITE02-0387,1176,Dyspnea,Dyspnea,"Respiratory, thoracic and mediastinal disorders",MODERATE,N,TREATMENT INTERRUPTED,UNLIKELY,RECOVERED,2025-04-11,2025-04-28
CLIN-2025-042,AE,CLIN-2025-042-SITE02-0387,1177,Pruritus,Pruritus,Skin and subcutaneous tissue disorders,MILD,N,TREATMENT WITHDRAWN,UNLIKELY,NOT RECOVERED,2025-04-27,2025-05-05
CLIN-2025-042,AE,CLIN-2025-042-SITE02-0387,1178,Headache,Headache,Nervous system disorders,MILD,N,DOSE REDUCED,POSSIBLE,RECOVERED,2025-04-25,
CLIN-2025-042,AE,CLIN-2025-042-SITE04-0389,1179,Nausea,Nausea,Gastrointestinal disorders,MODERATE,Y,DOSE INCREASED,PROBABLE,RECOVERED,2025-02-28,2025-03-01
CLIN-2025-042,AE,CLIN-2025-042-SITE04-0389,1180,Vomiting,Vomiting,Gastrointestinal disorders,MODERATE,N,TREATMENT INTERRUPTED,PROBABLE,RECOVERED,2025-03-09,
CLIN-2025-042,AE,CLIN-2025-042-SITE04-0389,1181,Dizziness,Dizziness,Nervous system disorders,MODERATE,N,DOSE INCREASED,VERY LIKELY,RECOVERED,2025-02-25,2025-03-03
CLIN-2025-042,AE,CLIN-2025-042-SITE04-0389,1182,Tachycardia,Tachycardia,Cardiac disorders,MILD,N,DOSE REDUCED,PROBABLE,RECOVERING,2025-02-24,2025-03-05
CLIN-2025-042,AE,CLIN-2025-042-SITE04-0389,1183,Dyspnea,Dyspnea,"Respiratory, thoracic and mediastinal disorders",SEVERE,N,TREATMENT WITHDRAWN,PROBABLE,RECOVERED,2025-03-22,
CLIN-2025-042,AE,CLIN-2025-042-SITE04-0389,1184,Muscle pain,Muscle pain,Musculoskeletal and connective tissue disorders,MILD,N,NONE,POSSIBLE,RECOVERED,2025-03-28,2025-04-13
CLIN-2025-042,AE,CLIN-2025-042-SITE05-0390,1185,Fatigue,Fatigue,General disorders and administration site conditions,MILD,N,DOSE INCREASED,UNLIKELY,RECOVERED,2025-05-05,2025-05-20
CLIN-2025-042,AE,CLIN-2025-042-SITE05-0390,1186,Abdominal pain,Abdominal pain,Gastrointestinal disorders,MODERATE,Y,DOSE INCREASED,VERY LIKELY,RECOVERED,2025-04-22,2025-05-05
CLIN-2025-042,AE,CLIN-2025-042-SITE05-0390,1187,Fatigue,Fatigue,General disorders and administration site conditions,MILD,N,TREATMENT INTERRUPTED,POSSIBLE,RECOVERED,2025-05-16,2025-06-02
CLIN-2025-042,AE,CLIN-2025-042-SITE01-0391,1188,Rash,Rash,Skin and subcutaneous tissue disorders,MILD,N,TREATMENT WITHDRAWN,POSSIBLE,RECOVERED,2025-07-12,2025-07-26
CLIN-2025-042,AE,CLIN-2025-042-SITE02-0392,1189,Vomiting,Vomiting,Gastrointestinal disorders,MODERATE,N,NONE,VERY LIKELY,NOT RECOVERED,2025-07-27,2025-08-06
CLIN-2025-042,AE,CLIN-2025-042-SITE02-0392,1190,Vomiting,Vomiting,Gastrointestinal disorders,MODERATE,N,DOSE INCREASED,POSSIBLE,RECOVERING,2025-07-01,2025-07-13
CLIN-2025-042,AE,CLIN-2025-042-SITE02-0392,1191,Fever,Fever,General disorders and administration site conditions,SEVERE,Y,NONE,PROBABLE,RECOVERING,2025-07-05,
CLIN-2025-042,AE,CLIN-2025-042-SITE03-0393,1192,Abdominal pain,Abdominal pain,Gastrointestinal disorders,MODERATE,N,NONE,POSSIBLE,UNKNOWN,2025-08-20,2025-08-28
CLIN-2025-042,AE,CLIN-2025-042-SITE03-0393,1193,Back pain,Back pain,Musculoskeletal and connective tissue disorders,MILD,N,TREATMENT WITHDRAWN,PROBABLE,RECOVERED,2025-07-26,
CLIN-2025-042,AE,CLIN-2025-042-SITE03-0393,1194,Diarrhea,Diarrhea,Gastrointestinal disorders,MILD,N,DOSE REDUCED,PROBABLE,RECOVERED,2025-08-10,2025-08-25
CLIN-2025-042,AE,CLIN-2025-042-SITE03-0393,1195,Dizziness,Dizziness,Nervous system disorders,MILD,N,DOSE INCREASED,POSSIBLE,RECOVERED,2025-08-11,2025-08-27
CLIN-2025-042,AE,CLIN-2025-042-SITE04-0394,1196,Fatigue,Fatigue,General disorders and administration site conditions,MILD,N,TREATMENT WITHDRAWN,PROBABLE,NOT RECOVERED,2025-06-22,2025-07-05
CLIN-2025-042,AE,CLIN-2025-042-SITE04-0394,1197,Dizziness,Dizziness,Nervous system disorders,MILD,N,TREATMENT INTERRUPTED,UNLIKELY,RECOVERED,2025-06-24,2025-06-28
CLIN-2025-042,AE,CLIN-2025-042-SITE05-0395,1198,Abdominal pain,Abdominal pain,Gastrointestinal disorders,SEVERE,N,NONE,UNLIKELY,RECOVERED,2025-05-31,2025-06-10
CLIN-2025-042,AE,CLIN-2025-042-SITE05-0395,1199,Dizziness,Dizziness,Nervous system disorders,MILD,N,NONE,VERY LIKELY,FATAL,2025-05-12,2025-05-26
CLIN-2025-042,AE,CLIN-2025-042-SITE05-0395,1200,Cough,Cough,"Respiratory, thoracic and mediastinal disorders",MILD,N,DOSE INCREASED,PROBABLE,NOT RECOVERED,2025-05-31,2025-06-08
CLIN-2025-042,AE,CLIN-2025-042-SITE01-0396,1201,Rash,Rash,Skin and subcutaneous tissue disorders,MILD,N,NONE,VERY LIKELY,RECOVERED,2025-04-11,2025-04-27
CLIN-2025-042,AE,CLIN-2025-042-SITE01-0396,1202,Dyspnea,Dyspnea,"Respiratory, thoracic and mediastinal disorders",MILD,Y,TREATMENT WITHDRAWN,UNLIKELY,RECOVERING,2025-04-09,2025-04-11
CLIN-2025-042,AE,CLIN-2025-042-SITE01-0396,1203,Nausea,Nausea,Gastrointestinal disorders,MILD,N,DOSE REDUCED,PROBABLE,RECOVERED,2025-03-24,
CLIN-2025-042,AE,CLIN-2025-042-SITE02-0397,1204,Pruritus,Pruritus,Skin and subcutaneous tissue disorders,MODERATE,N,TREATMENT INTERRUPTED,PROBABLE,RECOVERED,2025-03-30,2025-04-05
CLIN-2025-042,AE,CLIN-2025-042-SITE02-0397,1205,Dyspnea,Dyspnea,"Respiratory, thoracic and mediastinal disorders",MILD,N,NONE,VERY LIKELY,NOT RECOVERED,2025-03-30,
CLIN-2025-042,AE,CLIN-2025-042-SITE02-0397,1206,Pruritus,Pruritus,Skin and subcutaneous tissue disorders,MILD,N,TREATMENT WITHDRAWN,PROBABLE,RECOVERED,2025-04-14,2025-04-23
CLIN-2025-042,AE,CLIN-2025-042-SITE02-0397,1207,Headache,Headache,Nervous system disorders,MODERATE,N,DOSE INCREASED,PROBABLE,RECOVERED,2025-03-23,2025-04-06
CLIN-2025-042,AE,CLIN-2025-042-SITE03-0398,1208,Rash,Rash,Skin and subcutaneous tissue disorders,MODERATE,N,DOSE REDUCED,UNLIKELY,UNKNOWN,2025-07-10,2025-07-25
CLIN-2025-042,AE,CLIN-2025-042-SITE03-0398,1209,Pruritus,Pruritus,Skin and subcutaneous tissue disorders,MILD,N,DOSE INCREASED,UNLIKELY,RECOVERED,2025-07-16,2025-07-23
CLIN-2025-042,AE,CLIN-2025-042-SITE03-0398,1210,Dyspnea,Dyspnea,"Respiratory, thoracic and mediastinal disorders",MILD,N,DOSE INCREASED,POSSIBLE,RECOVERED,2025-07-10,2025-07-22
CLIN-2025-042,AE,CLIN-2025-042-SITE03-0398,1211,Insomnia,Insomnia,Nervous system disorders,MODERATE,N,NONE,POSSIBLE,RECOVERED,2025-07-08,2025-07-24
CLIN-2025-042,AE,CLIN-2025-042-SITE03-0398,1212,Fever,Fever,General disorders and administration site conditions,MILD,N,DOSE INCREASED,POSSIBLE,RECOVERED,2025-07-03,2025-07-18
CLIN-2025-042,AE,CLIN-2025-042-SITE03-0398,1213,Vomiting,Vomiting,Gastrointestinal disorders,MILD,N,DOSE REDUCED,POSSIBLE,RECOVERED,2025-06-11,2025-06-21
CLIN-2025-042,AE,CLIN-2025-042-SITE04-0399,1214,Dizziness,Dizziness,Nervous system disorders,MODERATE,Y,DOSE REDUCED,PROBABLE,RECOVERED,2025-04-25,2025-05-03
CLIN-2025-042,AE,CLIN-2025-042-SITE04-0399,1215,Fatigue,Fatigue,General disorders and administration site conditions,MODERATE,N,TREATMENT WITHDRAWN,UNLIKELY,RECOVERED,2025-05-12,
CLIN-2025-042,AE,CLIN-2025-042-SITE04-0399,1216,Rash,Rash,Skin and subcutaneous tissue disorders,SEVERE,N,NONE,POSSIBLE,RECOVERED,2025-04-27,
CLIN-2025-042,AE,CLIN-2025-042-SITE04-0399,1217,Pruritus,Pruritus,Skin and subcutaneous tissue disorders,MODERATE,N,TREATMENT INTERRUPTED,UNLIKELY,RECOVERED,2025-04-30,2025-05-17
CLIN-2025-042,AE,CLIN-2025-042-SITE04-0399,1218,Constipation,Constipation,Gastrointestinal disorders,MILD,N,DOSE INCREASED,POSSIBLE,RECOVERING,2025-05-04,2025-05-07
CLIN-2025-042,AE,CLIN-2025-042-SITE04-0399,1219,Headache,Headache,Nervous system disorders,MODERATE,N,TREATMENT INTERRUPTED,POSSIBLE,RECOVERING,2025-04-26,2025-05-02
CLIN-2025-042,AE,CLIN-2025-042-SITE05-0400,1220,Constipation,Constipation,Gastrointestinal disorders,MODERATE,N,TREATMENT INTERRUPTED,POSSIBLE,RECOVERED,2025-04-18,2025-04-24
CLIN-2025-042,AE,CLIN-2025-042-SITE05-0400,1221,Tachycardia,Tachycardia,Cardiac disorders,MILD,N,TREATMENT INTERRUPTED,PROBABLE,RECOVERED,2025-05-13,2025-05-17
CLIN-2025-042,AE,CLIN-2025-042-SITE05-0400,1222,Dizziness,Dizziness,Nervous system disorders,MILD,Y,TREATMENT WITHDRAWN,PROBABLE,RECOVERED,2025-05-12,2025-05-28
CLIN-2025-042,AE,CLIN-2025-042-SITE05-0400,1223,Tachycardia,Tachycardia,Cardiac disorders,MILD,N,TREATMENT INTERRUPTED,PROBABLE,RECOVERING,2025-04-10,2025-04-12
CLIN-2025-042,AE,CLIN-2025-042-SITE01-0401,1224,Tremor,Tremor,Nervous system disorders,SEVERE,N,DOSE REDUCED,VERY LIKELY,RECOVERED,2025-03-16,2025-03-20
