STUDYID,DOMAIN,USUBJID,SUBJID,RFSTDTC,RFENDTC,SITEID,SEX,AGE,AGEU,RACE,ARMCD,ARM,COUNTRY,ACTARMCD,ACTARM
CLIN-2025-042,DM,CLIN-2025-042-SITE01-0001,0001,2025-04-17,2025-06-20,SITE01,F,28,YEARS,WHITE,TRT01,Treatment A,USA,TRT01,Treatment A
CLIN-2025-042,DM,CLIN-2025-042-SITE02-0002,0002,2025-04-24,2025-06-20,SITE02,F,49,YEARS,WHITE,PBO,Placebo,USA,PBO,Placebo
CLIN-2025-042,DM,CLIN-2025-042-SITE03-0003,0003,2025-02-21,2025-04-13,SITE03,M,36,YEARS,WHITE,PBO,Placebo,USA,PBO,Placebo
CLIN-2025-042,DM,CLIN-2025-042-SITE04-0004,0004,2025-03-14,2025-05-12,SITE04,M,31,YEARS,OTHER,TRT01,Treatment A,CAN,TRT01,Treatment A
CLIN-2025-042,DM,CLIN-2025-042-SITE05-0005,0005,2025-03-06,2025-05-06,SITE05,M,36,YEARS,WHITE,TRT01,Treatment A,GBR,TRT01,Treatment A
CLIN-2025-042,DM,CLIN-2025-042-SITE01-0006,0006,2025-05-26,2025-07-28,SITE01,F,46,YEARS,WHITE,TRT01,Treatment A,USA,TRT01,Treatment A
CLIN-2025-042,DM,CLIN-2025-042-SITE02-0007,0007,2025-05-05,2025-06-30,SITE02,F,39,YEARS,WHITE,TRT02,Treatment B,USA,TRT02,Treatment B
CLIN-2025-042,DM,CLIN-2025-042-SITE03-0008,0008,2025-05-28,2025-07-26,SITE03,F,50,YEARS,WHITE,TRT02,Treatment B,USA,TRT02,Treatment B
CLIN-2025-042,DM,CLIN-2025-042-SITE04-0009,0009,2025-01-28,2025-04-03,SITE04,M,56,YEARS,OTHER,TRT02,Treatment B,CAN,TRT02,Treatment B
CLIN-2025-042,DM,CLIN-2025-042-SITE05-0010,0010,2025-05-05,2025-07-06,SITE05,M,75,YEARS,ASIAN,TRT02,Treatment B,GBR,TRT02,Treatment B
CLIN-2025-042,DM,CLIN-2025-042-SITE01-0011,0011,2025-04-12,2025-06-01,SITE01,M,60,YEARS,BLACK,PBO,Placebo,USA,PBO,Placebo
CLIN-2025-042,DM,CLIN-2025-042-SITE02-0012,0012,2025-02-24,2025-04-21,SITE02,F,58,YEARS,WHITE,TRT01,Treatment A,USA,TRT01,Treatment A
CLIN-2025-042,DM,CLIN-2025-042-SITE03-0013,0013,2025-03-17,2025-05-10,SITE03,F,57,YEARS,WHITE,TRT01,Treatment A,USA,TRT01,Treatment A
CLIN-2025-042,DM,CLIN-2025-042-SITE04-0014,0014,2025-01-15,2025-03-10,SITE04,F,49,YEARS,BLACK,TRT02,Treatment B,CAN,TRT02,Treatment B
CLIN-2025-042,DM,CLIN-2025-042-SITE05-0015,0015,2025-01-29,2025-03-29,SITE05,M,47,YEARS,WHITE,TRT02,Treatment B,GBR,TRT02,Treatment B
CLIN-2025-042,DM,CLIN-2025-042-SITE01-0016,0016,2025-06-14,2025-08-09,SITE01,M,43,YEARS,BLACK,TRT02,Treatment B,USA,TRT02,Treatment B
CLIN-2025-042,DM,CLIN-2025-042-SITE02-0017,0017,2025-04-10,2025-05-31,SITE02,F,35,YEARS,WHITE,TRT01,Treatment A,USA,TRT01,Treatment A
CLIN-2025-042,DM,CLIN-2025-042-SITE03-0018,0018,2025-03-30,2025-05-25,SITE03,F,40,YEARS,WHITE,TRT02,Treatment B,USA,TRT02,Treatment B
CLIN-2025-042,DM,CLIN-2025-042-SITE04-0019,0019,2025-01-17,2025-03-14,SITE04,M,25,YEARS,BLACK,TRT01,Treatment A,CAN,TRT01,Treatment A
CLIN-2025-042,DM,CLIN-2025-042-SITE05-0020,0020,2025-03-14,2025-05-11,SITE05,M,75,YEARS,WHITE,TRT01,Treatment A,GBR,TRT01,Treatment A
CLIN-2025-042,DM,CLIN-2025-042-SITE01-0021,0021,2025-02-22,2025-04-14,SITE01,F,38,YEARS,WHITE,TRT01,Treatment A,USA,TRT01,Treatment A
CLIN-2025-042,DM,CLIN-2025-042-SITE02-0022,0022,2025-03-08,2025-05-08,SITE02,M,43,YEARS,WHITE,TRT02,Treatment B,USA,TRT02,Treatment B
CLIN-2025-042,DM,CLIN-2025-042-SITE03-0023,0023,2025-05-17,2025-07-22,SITE03,F,66,YEARS,WHITE,TRT01,Treatment A,USA,TRT01,Treatment A
CLIN-2025-042,DM,CLIN-2025-042-SITE04-0024,0024,2025-04-21,2025-06-18,SITE04,M,23,YEARS,WHITE,TRT01,Treatment A,CAN,TRT01,Treatment A
CLIN-2025-042,DM,CLIN-2025-042-SITE05-0025,0025,2025-06-27,2025-09-03,SITE05,F,36,YEARS,WHITE,TRT02,Treatment B,GBR,TRT02,Treatment B
CLIN-2025-042,DM,CLIN-2025-042-SITE01-0026,0026,2025-02-22,2025-04-30,SITE01,F,61,YEARS,BLACK,TRT01,Treatment A,USA,TRT01,Treatment A
CLIN-2025-042,DM,CLIN-2025-042-SITE02-0027,0027,2025-06-22,2025-08-20,SITE02,M,60,YEARS,WHITE,TRT01,Treatment A,USA,TRT01,Treatment A
CLIN-2025-042,DM,CLIN-2025-042-SITE03-0028,0028,2025-03-03,2025-05-03,SITE03,F,52,YEARS,ASIAN,TRT01,Treatment A,USA,TRT01,Treatment A
CLIN-2025-042,DM,CLIN-2025-042-SITE04-0029,0029,2025-06-10,2025-08-14,SITE04,F,40,YEARS,ASIAN,TRT01,Treatment A,CAN,TRT01,Treatment A
CLIN-2025-042,DM,CLIN-2025-042-SITE05-0030,0030,2025-06-27,2025-08-21,SITE05,F,60,YEARS,WHITE,PBO,Placebo,GBR,PBO,Placebo
CLIN-2025-042,DM,CLIN-2025-042-SITE01-0031,0031,2025-06-16,2025-08-22,SITE01,M,72,YEARS,BLACK,PBO,Placebo,USA,PBO,Placebo
CLIN-2025-042,DM,CLIN-2025-042-SITE02-0032,0032,2025-02-16,2025-04-20,SITE02,M,52,YEARS,BLACK,TRT02,Treatment B,USA,TRT02,Treatment B
CLIN-2025-042,DM,CLIN-2025-042-SITE03-0033,0033,2025-06-08,2025-07-28,SITE03,F,75,YEARS,WHITE,PBO,Placebo,USA,PBO,Placebo
CLIN-2025-042,DM,CLIN-2025-042-SITE04-0034,0034,2025-03-06,2025-05-02,SITE04,F,47,YEARS,BLACK,PBO,Placebo,CAN,PBO,Placebo
CLIN-2025-042,DM,CLIN-2025-042-SITE05-0035,0035,2025-03-16,2025-05-20,SITE05,M,45,YEARS,WHITE,TRT02,Treatment B,GBR,TRT02,Treatment B
CLIN-2025-042,DM,CLIN-2025-042-SITE01-0036,0036,2025-05-11,2025-07-05,SITE01,M,42,YEARS,WHITE,PBO,Placebo,USA,PBO,Placebo
CLIN-2025-042,DM,CLIN-2025-042-SITE02-0037,0037,2025-04-19,2025-06-10,SITE02,F,41,YEARS,WHITE,TRT02,Treatment B,USA,TRT02,Treatment B
CLIN-2025-042,DM,CLIN-2025-042-SITE03-0038,0038,2025-02-01,2025-04-01,SITE03,F,37,YEARS,BLACK,TRT02,Treatment B,USA,TRT02,Treatment B
CLIN-2025-042,DM,CLIN-2025-042-SITE04-0039,0039,2025-02-15,2025-04-20,SITE04,F,45,YEARS,ASIAN,TRT01,Treatment A,CAN,TRT01,Treatment A
CLIN-2025-042,DM,CLIN-2025-042-SITE05-0040,0040,2025-02-26,2025-05-02,SITE05,F,27,YEARS,WHITE,TRT02,Treatment B,GBR,TRT02,Treatment B
CLIN-2025-042,DM,CLIN-2025-042-SITE01-0041,0041,2025-06-15,2025-08-16,SITE01,M,36,YEARS,ASIAN,TRT01,Treatment A,USA,TRT01,Treatment A
CLIN-2025-042,DM,CLIN-2025-042-SITE02-0042,0042,2025-02-15,2025-04-24,SITE02,M,43,YEARS,WHITE,TRT02,Treatment B,USA,TRT02,Treatment B
CLIN-2025-042,DM,CLIN-2025-042-SITE03-0043,0043,2025-04-10,2025-06-15,SITE03,M,37,YEARS,WHITE,TRT02,Treatment B,USA,TRT02,Treatment B
CLIN-2025-042,DM,CLIN-2025-042-SITE04-0044,0044,2025-05-02,2025-06-25,SITE04,M,61,YEARS,ASIAN,TRT02,Treatment B,CAN,TRT02,Treatment B
CLIN-2025-042,DM,CLIN-2025-042-SITE05-0045,0045,2025-04-23,2025-06-19,SITE05,F,45,YEARS,WHITE,TRT02,Treatment B,GBR,TRT02,Treatment B
CLIN-2025-042,DM,CLIN-2025-042-SITE01-0046,0046,2025-04-16,2025-06-09,SITE01,M,51,YEARS,WHITE,TRT01,Treatment A,USA,TRT01,Treatment A
CLIN-2025-042,DM,CLIN-2025-042-SITE02-0047,0047,2025-05-23,2025-07-12,SITE02,M,40,YEARS,WHITE,TRT02,Treatment B,USA,TRT02,Treatment B
CLIN-2025-042,DM,CLIN-2025-042-SITE03-0048,0048,2025-03-24,2025-05-15,SITE03,M,41,YEARS,WHITE,TRT02,Treatment B,USA,TRT02,Treatment B
CLIN-2025-042,DM,CLIN-2025-042-SITE04-0049,0049,2025-03-24,2025-05-27,SITE04,M,51,YEARS,WHITE,TRT01,Treatment A,CAN,TRT01,Treatment A
CLIN-2025-042,DM,CLIN-2025-042-SITE05-0050,0050,2025-02-22,2025-04-16,SITE05,M,56,YEARS,WHITE,TRT02,Treatment B,GBR,TRT02,Treatment B
CLIN-2025-042,DM,CLIN-2025-042-SITE01-0051,0051,2025-03-24,2025-05-16,SITE01,M,66,YEARS,WHITE,TRT02,Treatment B,USA,TRT02,Treatment B
CLIN-2025-042,DM,CLIN-2025-042-SITE02-0052,0052,2025-01-18,2025-03-24,SITE02,M,23,YEARS,WHITE,TRT02,Treatment B,USA,TRT02,Treatment B
CLIN-2025-042,DM,CLIN-2025-042-SITE03-0053,0053,2025-04-08,2025-06-08,SITE03,M,35,YEARS,WHITE,TRT02,Treatment B,USA,TRT02,Treatment B
CLIN-2025-042,DM,CLIN-2025-042-SITE04-0054,0054,2025-06-24,2025-08-20,SITE04,F,75,YEARS,WHITE,TRT01,Treatment A,CAN,TRT01,Treatment A
CLIN-2025-042,DM,CLIN-2025-042-SITE05-0055,0055,2025-05-24,2025-07-31,SITE05,F,63,YEARS,WHITE,TRT01,Treatment A,GBR,TRT01,Treatment A
CLIN-2025-042,DM,CLIN-2025-042-SITE01-0056,0056,2025-05-09,2025-07-06,SITE01,M,25,YEARS,BLACK,TRT01,Treatment A,USA,TRT01,Treatment A
CLIN-2025-042,DM,CLIN-2025-042-SITE02-0057,0057,2025-05-14,2025-07-06,SITE02,M,45,YEARS,WHITE,PBO,Placebo,USA,PBO,Placebo
CLIN-2025-042,DM,CLIN-2025-042-SITE03-0058,0058,2025-04-23,2025-06-27,SITE03,M,52,YEARS,WHITE,TRT02,Treatment B,USA,TRT02,Treatment B
CLIN-2025-042,DM,CLIN-2025-042-SITE04-0059,0059,2025-02-20,2025-04-22,SITE04,M,57,YEARS,WHITE,PBO,Placebo,CAN,PBO,Placebo
CLIN-2025-042,DM,CLIN-2025-042-SITE05-0060,0060,2025-05-06,2025-07-07,SITE05,F,57,YEARS,WHITE,TRT02,Treatment B,GBR,TRT02,Treatment B
CLIN-2025-042,DM,CLIN-2025-042-SITE01-0061,0061,2025-03-31,2025-05-28,SITE01,M,73,YEARS,WHITE,PBO,Placebo,USA,PBO,Placebo
CLIN-2025-042,DM,CLIN-2025-042-SITE02-0062,0062,2025-05-17,2025-07-09,SITE02,F,60,YEARS,BLACK,TRT01,Treatment A,USA,TRT01,Treatment A
CLIN-2025-042,DM,CLIN-2025-042-SITE03-0063,0063,2025-06-30,2025-09-01,SITE03,F,59,YEARS,WHITE,PBO,Placebo,USA,PBO,Placebo
CLIN-2025-042,DM,CLIN-2025-042-SITE04-0064,0064,2025-03-29,2025-05-29,SITE04,F,42,YEARS,ASIAN,TRT01,Treatment A,CAN,TRT01,Treatment A
CLIN-2025-042,DM,CLIN-2025-042-SITE05-0065,0065,2025-05-31,2025-08-06,SITE05,F,45,YEARS,WHITE,TRT01,Treatment A,GBR,TRT01,Treatment A
CLIN-2025-042,DM,CLIN-2025-042-SITE01-0066,0066,2025-04-10,2025-06-18,SITE01,M,27,YEARS,ASIAN,PBO,Placebo,USA,PBO,Placebo
CLIN-2025-042,DM,CLIN-2025-042-SITE02-0067,0067,2025-06-22,2025-08-29,SITE02,F,18,YEARS,ASIAN,TRT01,Treatment A,USA,TRT01,Treatment A
CLIN-2025-042,DM,CLIN-2025-042-SITE03-0068,0068,2025-06-04,2025-08-10,SITE03,M,68,YEARS,WHITE,TRT02,Treatment B,USA,TRT02,Treatment B
CLIN-2025-042,DM,CLIN-2025-042-SITE04-0069,0069,2025-04-29,2025-06-24,SITE04,F,52,YEARS,WHITE,TRT01,Treatment A,CAN,TRT01,Treatment A
CLIN-2025-042,DM,CLIN-2025-042-SITE05-0070,0070,2025-06-29,2025-08-23,SITE05,F,46,YEARS,OTHER,PBO,Placebo,GBR,PBO,Placebo
CLIN-2025-042,DM,CLIN-2025-042-SITE01-0071,0071,2025-04-04,2025-06-03,SITE01,F,57,YEARS,WHITE,TRT01,Treatment A,USA,TRT01,Treatment A
CLIN-2025-042,DM,CLIN-2025-042-SITE02-0072,0072,2025-06-06,2025-07-26,SITE02,F,29,YEARS,WHITE,TRT01,Treatment A,USA,TRT01,Treatment A
CLIN-2025-042,DM,CLIN-2025-042-SITE03-0073,0073,2025-01-26,2025-03-26,SITE03,F,43,YEARS,WHITE,TRT01,Treatment A,USA,TRT01,Treatment A
CLIN-2025-042,DM,CLIN-2025-042-SITE04-0074,0074,2025-04-14,2025-06-10,SITE04,M,59,YEARS,WHITE,TRT01,Treatment A,CAN,TRT01,Treatment A
CLIN-2025-042,DM,CLIN-2025-042-SITE05-0075,0075,2025-06-18,2025-08-23,SITE05,M,70,YEARS,WHITE,PBO,Placebo,GBR,PBO,Placebo
CLIN-2025-042,DM,CLIN-2025-042-SITE01-0076,0076,2025-05-28,2025-08-03,SITE01,M,22,YEARS,WHITE,TRT01,Treatment A,USA,TRT01,Treatment A
CLIN-2025-042,DM,CLIN-2025-042-SITE02-0077,0077,2025-02-13,2025-04-21,SITE02,F,40,YEARS,BLACK,TRT01,Treatment A,USA,TRT01,Treatment A
CLIN-2025-042,DM,CLIN-2025-042-SITE03-0078,0078,2025-01-25,2025-04-01,SITE03,F,27,YEARS,WHITE,PBO,Placebo,USA,PBO,Placebo
CLIN-2025-042,DM,CLIN-2025-042-SITE04-0079,0079,2025-03-10,2025-05-04,SITE04,F,69,YEARS,ASIAN,TRT01,Treatment A,CAN,TRT01,Treatment A
CLIN-2025-042,DM,CLIN-2025-042-SITE05-0080,0080,2025-04-07,2025-06-12,SITE05,M,48,YEARS,WHITE,TRT02,Treatment B,GBR,TRT02,Treatment B
CLIN-2025-042,DM,CLIN-2025-042-SITE01-0081,0081,2025-01-18,2025-03-09,SITE01,F,21,YEARS,WHITE,TRT01,Treatment A,USA,TRT01,Treatment A
CLIN-2025-042,DM,CLIN-2025-042-SITE02-0082,0082,2025-05-12,2025-07-03,SITE02,F,64,YEARS,ASIAN,TRT02,Treatment B,USA,TRT02,Treatment B
CLIN-2025-042,DM,CLIN-2025-042-SITE03-0083,0083,2025-03-12,2025-05-17,SITE03,M,67,YEARS,WHITE,TRT02,Treatment B,USA,TRT02,Treatment B
CLIN-2025-042,DM,CLIN-2025-042-SITE04-0084,0084,2025-02-21,2025-04-29,SITE04,F,58,YEARS,WHITE,TRT01,Treatment A,CAN,TRT01,Treatment A
CLIN-2025-042,DM,CLIN-2025-042-SITE05-0085,0085,2025-03-07,2025-05-01,SITE05,M,41,YEARS,WHITE,PBO,Placebo,GBR,PBO,Placebo
CLIN-2025-042,DM,CLIN-2025-042-SITE01-0086,0086,2025-06-01,2025-08-06,SITE01,M,53,YEARS,WHITE,TRT02,Treatment B,USA,TRT02,Treatment B
CLIN-2025-042,DM,CLIN-2025-042-SITE02-0087,0087,2025-03-08,2025-04-28,SITE02,M,25,YEARS,WHITE,PBO,Placebo,USA,PBO,Placebo
CLIN-2025-042,DM,CLIN-2025-042-SITE03-0088,0088,2025-04-19,2025-06-18,SITE03,M,55,YEARS,WHITE,TRT01,Treatment A,USA,TRT01,Treatment A
CLIN-2025-042,DM,CLIN-2025-042-SITE04-0089,0089,2025-04-20,2025-06-11,SITE04,M,46,YEARS,WHITE,TRT01,Treatment A,CAN,TRT01,Treatment A
CLIN-2025-042,DM,CLIN-2025-042-SITE05-0090,0090,2025-07-03,2025-08-27,SITE05,M,50,YEARS,WHITE,TRT01,Treatment A,GBR,TRT01,Treatment A
CLIN-2025-042,DM,CLIN-2025-042-SITE01-0091,0091,2025-04-02,2025-06-03,SITE01,M,44,YEARS,BLACK,TRT01,Treatment A,USA,TRT01,Treatment A
CLIN-2025-042,DM,CLIN-2025-042-SITE02-0092,0092,2025-03-03,2025-05-08,SITE02,M,31,YEARS,ASIAN,TRT01,Treatment A,USA,TRT01,Treatment A
CLIN-2025-042,DM,CLIN-2025-042-SITE03-0093,0093,2025-03-02,2025-05-04,SITE03,F,35,YEARS,BLACK,TRT01,Treatment A,USA,TRT01,Treatment A
CLIN-2025-042,DM,CLIN-2025-042-SITE04-0094,0094,2025-01-21,2025-03-14,SITE04,F,18,YEARS,WHITE,TRT01,Treatment A,CAN,TRT01,Treatment A
CLIN-2025-042,DM,CLIN-2025-042-SITE05-0095,0095,2025-02-21,2025-04-14,SITE05,M,49,YEARS,WHITE,TRT01,Treatment A,GBR,TRT01,Treatment A
CLIN-2025-042,DM,CLIN-2025-042-SITE01-0096,0096,2025-04-10,2025-06-10,SITE01,M,37,YEARS,WHITE,PBO,Placebo,USA,PBO,Placebo
CLIN-2025-042,DM,CLIN-2025-042-SITE02-0097,0097,2025-05-03,2025-07-09,SITE02,M,75,YEARS,BLACK,TRT01,Treatment A,USA,TRT01,Treatment A
CLIN-2025-042,DM,CLIN-2025-042-SITE03-0098,0098,2025-07-02,2025-08-25,SITE03,M,60,YEARS,WHITE,TRT01,Treatment A,USA,TRT01,Treatment A
CLIN-2025-042,DM,CLIN-2025-042-SITE04-0099,0099,2025-05-03,2025-06-27,SITE04,F,39,YEARS,WHITE,TRT01,Treatment A,CAN,TRT01,Treatment A
CLIN-2025-042,DM,CLIN-2025-042-SITE05-0100,0100,2025-03-30,2025-05-27,SITE05,M,41,YEARS,WHITE,TRT01,Treatment A,GBR,TRT01,Treatment A
CLIN-2025-042,DM,CLIN-2025-042-SITE01-0101,0101,2025-01-20,2025-03-12,SITE01,F,44,YEARS,BLACK,PBO,Placebo,USA,PBO,Placebo
CLIN-2025-042,DM,CLIN-2025-042-SITE02-0102,0102,2025-05-30,2025-08-06,SITE02,F,51,YEARS,WHITE,TRT02,Treatment B,USA,TRT02,Treatment B
CLIN-2025-042,DM,CLIN-2025-042-SITE03-0103,0103,2025-02-03,2025-04-10,SITE03,F,59,YEARS,WHITE,TRT02,Treatment B,USA,TRT02,Treatment B
CLIN-2025-042,DM,CLIN-2025-042-SITE04-0104,0104,2025-04-01,2025-05-31,SITE04,F,56,YEARS,WHITE,PBO,Placebo,CAN,PBO,Placebo
CLIN-2025-042,DM,CLIN-2025-042-SITE05-0105,0105,2025-06-01,2025-08-01,SITE05,M,36,YEARS,WHITE,TRT02,Treatment B,GBR,TRT02,Treatment B
CLIN-2025-042,DM,CLIN-2025-042-SITE01-0106,0106,2025-06-06,2025-07-31,SITE01,M,48,YEARS,WHITE,TRT01,Treatment A,USA,TRT01,Treatment A
CLIN-2025-042,DM,CLIN-2025-042-SITE02-0107,0107,2025-07-11,2025-09-12,SITE02,F,55,YEARS,BLACK,PBO,Placebo,USA,PBO,Placebo
CLIN-2025-042,DM,CLIN-2025-042-SITE03-0108,0108,2025-01-25,2025-03-24,SITE03,F,42,YEARS,BLACK,TRT02,Treatment B,USA,TRT02,Treatment B
CLIN-2025-042,DM,CLIN-2025-042-SITE04-0109,0109,2025-04-07,2025-06-09,SITE04,F,58,YEARS,WHITE,TRT01,Treatment A,CAN,TRT01,Treatment A
CLIN-2025-042,DM,CLIN-2025-042-SITE05-0110,0110,2025-01-28,2025-04-06,SITE05,F,40,YEARS,WHITE,TRT02,Treatment B,GBR,TRT02,Treatment B
CLIN-2025-042,DM,CLIN-2025-042-SITE01-0111,0111,2025-06-08,2025-07-28,SITE01,M,33,YEARS,WHITE,TRT02,Treatment B,USA,TRT02,Treatment B
CLIN-2025-042,DM,CLIN-2025-042-SITE02-0112,0112,2025-03-22,2025-05-17,SITE02,F,45,YEARS,BLACK,TRT02,Treatment B,USA,TRT02,Treatment B
CLIN-2025-042,DM,CLIN-2025-042-SITE03-0113,0113,2025-02-16,2025-04-26,SITE03,F,57,YEARS,BLACK,PBO,Placebo,USA,PBO,Placebo
CLIN-2025-042,DM,CLIN-2025-042-SITE04-0114,0114,2025-03-21,2025-05-19,SITE04,M,60,YEARS,BLACK,TRT01,Treatment A,CAN,TRT01,Treatment A
CLIN-2025-042,DM,CLIN-2025-042-SITE05-0115,0115,2025-03-02,2025-04-24,SITE05,M,45,YEARS,WHITE,TRT02,Treatment B,GBR,TRT02,Treatment B
CLIN-2025-042,DM,CLIN-2025-042-SITE01-0116,0116,2025-07-06,2025-08-26,SITE01,M,75,YEARS,WHITE,TRT02,Treatment B,USA,TRT02,Treatment B
CLIN-2025-042,DM,CLIN-2025-042-SITE02-0117,0117,2025-02-10,2025-04-05,SITE02,F,43,YEARS,WHITE,TRT02,Treatment B,USA,TRT02,Treatment B
CLIN-2025-042,DM,CLIN-2025-042-SITE03-0118,0118,2025-05-01,2025-07-01,SITE03,F,49,YEARS,WHITE,TRT01,Treatment A,USA,TRT01,Treatment A
CLIN-2025-042,DM,CLIN-2025-042-SITE04-0119,0119,2025-04-28,2025-06-27,SITE04,F,71,YEARS,ASIAN,TRT01,Treatment A,CAN,TRT01,Treatment A
CLIN-2025-042,DM,CLIN-2025-042-SITE05-0120,0120,2025-04-16,2025-06-13,SITE05,M,53,YEARS,BLACK,TRT01,Treatment A,GBR,TRT01,Treatment A
CLIN-2025-042,DM,CLIN-2025-042-SITE01-0121,0121,2025-06-14,2025-08-03,SITE01,M,45,YEARS,WHITE,PBO,Placebo,USA,PBO,Placebo
CLIN-2025-042,DM,CLIN-2025-042-SITE02-0122,0122,2025-05-31,2025-07-29,SITE02,F,61,YEARS,WHITE,TRT01,Treatment A,USA,TRT01,Treatment A
CLIN-2025-042,DM,CLIN-2025-042-SITE03-0123,0123,2025-02-08,2025-04-09,SITE03,F,21,YEARS,ASIAN,TRT01,Treatment A,USA,TRT01,Treatment A
CLIN-2025-042,DM,CLIN-2025-042-SITE04-0124,0124,2025-07-12,2025-09-06,SITE04,M,18,YEARS,WHITE,TRT01,Treatment A,CAN,TRT01,Treatment A
CLIN-2025-042,DM,CLIN-2025-042-SITE05-0125,0125,2025-06-13,2025-08-19,SITE05,F,40,YEARS,WHITE,TRT02,Treatment B,GBR,TRT02,Treatment B
CLIN-2025-042,DM,CLIN-2025-042-SITE01-0126,0126,2025-01-15,2025-03-18,SITE01,M,28,YEARS,WHITE,TRT02,Treatment B,USA,TRT02,Treatment B
CLIN-2025-042,DM,CLIN-2025-042-SITE02-0127,0127,2025-06-21,2025-08-26,SITE02,M,75,YEARS,WHITE,TRT01,Treatment A,USA,TRT01,Treatment A
CLIN-2025-042,DM,CLIN-2025-042-SITE03-0128,0128,2025-05-07,2025-07-13,SITE03,M,28,YEARS,BLACK,TRT02,Treatment B,USA,TRT02,Treatment B
CLIN-2025-042,DM,CLIN-2025-042-SITE04-0129,0129,2025-03-10,2025-05-05,SITE04,F,52,YEARS,WHITE,TRT01,Treatment A,CAN,TRT01,Treatment A
CLIN-2025-042,DM,CLIN-2025-042-SITE05-0130,0130,2025-02-15,2025-04-23,SITE05,F,40,YEARS,WHITE,PBO,Placebo,GBR,PBO,Placebo
CLIN-2025-042,DM,CLIN-2025-042-SITE01-0131,0131,2025-03-27,2025-05-30,SITE01,F,47,YEARS,BLACK,TRT01,Treatment A,USA,TRT01,Treatment A
CLIN-2025-042,DM,CLIN-2025-042-SITE02-0132,0132,2025-02-15,2025-04-19,SITE02,F,59,YEARS,WHITE,PBO,Placebo,USA,PBO,Placebo
CLIN-2025-042,DM,CLIN-2025-042-SITE03-0133,0133,2025-03-10,2025-05-14,SITE03,M,65,YEARS,ASIAN,TRT01,Treatment A,USA,TRT01,Treatment A
CLIN-2025-042,DM,CLIN-2025-042-SITE04-0134,0134,2025-02-12,2025-04-20,SITE04,F,56,YEARS,ASIAN,PBO,Placebo,CAN,PBO,Placebo
CLIN-2025-042,DM,CLIN-2025-042-SITE05-0135,0135,2025-05-24,2025-07-15,SITE05,F,56,YEARS,WHITE,TRT01,Treatment A,GBR,TRT01,Treatment A
CLIN-2025-042,DM,CLIN-2025-042-SITE01-0136,0136,2025-07-05,2025-08-26,SITE01,F,23,YEARS,BLACK,TRT02,Treatment B,USA,TRT02,Treatment B
CLIN-2025-042,DM,CLIN-2025-042-SITE02-0137,0137,2025-05-14,2025-07-16,SITE02,M,44,YEARS,WHITE,PBO,Placebo,USA,PBO,Placebo
CLIN-2025-042,DM,CLIN-2025-042-SITE03-0138,0138,2025-02-08,2025-04-05,SITE03,M,24,YEARS,WHITE,TRT02,Treatment B,USA,TRT02,Treatment B
CLIN-2025-042,DM,CLIN-2025-042-SITE04-0139,0139,2025-02-12,2025-04-15,SITE04,F,59,YEARS,WHITE,TRT01,Treatment A,CAN,TRT01,Treatment A
CLIN-2025-042,DM,CLIN-2025-042-SITE05-0140,0140,2025-02-17,2025-04-24,SITE05,M,53,YEARS,WHITE,TRT02,Treatment B,GBR,TRT02,Treatment B
CLIN-2025-042,DM,CLIN-2025-042-SITE01-0141,0141,2025-04-10,2025-06-04,SITE01,F,55,YEARS,WHITE,TRT01,Treatment A,USA,TRT01,Treatment A
CLIN-2025-042,DM,CLIN-2025-042-SITE02-0142,0142,2025-05-16,2025-07-18,SITE02,M,25,YEARS,WHITE,PBO,Placebo,USA,PBO,Placebo
CLIN-2025-042,DM,CLIN-2025-042-SITE03-0143,0143,2025-02-19,2025-04-28,SITE03,M,22,YEARS,WHITE,TRT01,Treatment A,USA,TRT01,Treatment A
CLIN-2025-042,DM,CLIN-2025-042-SITE04-0144,0144,2025-03-09,2025-04-29,SITE04,M,33,YEARS,OTHER,TRT01,Treatment A,CAN,TRT01,Treatment A
CLIN-2025-042,DM,CLIN-2025-042-SITE05-0145,0145,2025-02-19,2025-04-24,SITE05,M,36,YEARS,WHITE,TRT02,Treatment B,GBR,TRT02,Treatment B
CLIN-2025-042,DM,CLIN-2025-042-SITE01-0146,0146,2025-06-17,2025-08-07,SITE01,M,46,YEARS,WHITE,TRT01,Treatment A,USA,TRT01,Treatment A
CLIN-2025-042,DM,CLIN-2025-042-SITE02-0147,0147,2025-07-04,2025-08-30,SITE02,M,55,YEARS,BLACK,TRT02,Treatment B,USA,TRT02,Treatment B
CLIN-2025-042,DM,CLIN-2025-042-SITE03-0148,0148,2025-04-22,2025-06-22,SITE03,M,36,YEARS,WHITE,TRT01,Treatment A,USA,TRT01,Treatment A
CLIN-2025-042,DM,CLIN-2025-042-SITE04-0149,0149,2025-03-29,2025-06-03,SITE04,M,60,YEARS,BLACK,TRT01,Treatment A,CAN,TRT01,Treatment A
CLIN-2025-042,DM,CLIN-2025-042-SITE05-0150,0150,2025-05-12,2025-07-16,SITE05,F,46,YEARS,WHITE,TRT02,Treatment B,GBR,TRT02,Treatment B
CLIN-2025-042,DM,CLIN-2025-042-SITE01-0151,0151,2025-06-17,2025-08-14,SITE01,F,57,YEARS,WHITE,TRT01,Treatment A,USA,TRT01,Treatment A
CLIN-2025-042,DM,CLIN-2025-042-SITE02-0152,0152,2025-07-09,2025-09-04,SITE02,F,47,YEARS,ASIAN,TRT01,Treatment A,USA,TRT01,Treatment A
CLIN-2025-042,DM,CLIN-2025-042-SITE03-0153,0153,2025-06-30,2025-08-21,SITE03,M,23,YEARS,WHITE,PBO,Placebo,USA,PBO,Placebo
CLIN-2025-042,DM,CLIN-2025-042-SITE04-0154,0154,2025-07-01,2025-08-31,SITE04,F,52,YEARS,ASIAN,TRT02,Treatment B,CAN,TRT02,Treatment B
CLIN-2025-042,DM,CLIN-2025-042-SITE05-0155,0155,2025-06-04,2025-08-10,SITE05,F,60,YEARS,WHITE,TRT02,Treatment B,GBR,TRT02,Treatment B
CLIN-2025-042,DM,CLIN-2025-042-SITE01-0156,0156,2025-01-27,2025-03-30,SITE01,M,42,YEARS,ASIAN,PBO,Placebo,USA,PBO,Placebo
CLIN-2025-042,DM,CLIN-2025-042-SITE02-0157,0157,2025-02-12,2025-04-19,SITE02,M,75,YEARS,ASIAN,TRT01,Treatment A,USA,TRT01,Treatment A
CLIN-2025-042,DM,CLIN-2025-042-SITE03-0158,0158,2025-06-16,2025-08-11,SITE03,F,39,YEARS,BLACK,TRT02,Treatment B,USA,TRT02,Treatment B
CLIN-2025-042,DM,CLIN-2025-042-SITE04-0159,0159,2025-05-14,2025-07-20,SITE04,M,18,YEARS,BLACK,TRT02,Treatment B,CAN,TRT02,Treatment B
CLIN-2025-042,DM,CLIN-2025-042-SITE05-0160,0160,2025-03-16,2025-05-09,SITE05,M,26,YEARS,WHITE,PBO,Placebo,GBR,PBO,Placebo
CLIN-2025-042,DM,CLIN-2025-042-SITE01-0161,0161,2025-01-25,2025-03-28,SITE01,F,43,YEARS,WHITE,PBO,Placebo,USA,PBO,Placebo
CLIN-2025-042,DM,CLIN-2025-042-SITE02-0162,0162,2025-05-04,2025-07-02,SITE02,M,45,YEARS,WHITE,TRT01,Treatment A,USA,TRT01,Treatment A
CLIN-2025-042,DM,CLIN-2025-042-SITE03-0163,0163,2025-05-14,2025-07-08,SITE03,F,26,YEARS,WHITE,PBO,Placebo,USA,PBO,Placebo
CLIN-2025-042,DM,CLIN-2025-042-SITE04-0164,0164,2025-05-17,2025-07-15,SITE04,M,53,YEARS,WHITE,TRT02,Treatment B,CAN,TRT02,Treatment B
CLIN-2025-042,DM,CLIN-2025-042-SITE05-0165,0165,2025-01-27,2025-04-01,SITE05,M,18,YEARS,WHITE,PBO,Placebo,GBR,PBO,Placebo
CLIN-2025-042,DM,CLIN-2025-042-SITE01-0166,0166,2025-03-31,2025-05-29,SITE01,F,31,YEARS,BLACK,TRT01,Treatment A,USA,TRT01,Treatment A
CLIN-2025-042,DM,CLIN-2025-042-SITE02-0167,0167,2025-05-18,2025-07-21,SITE02,M,41,YEARS,WHITE,TRT01,Treatment A,USA,TRT01,Treatment A
CLIN-2025-042,DM,CLIN-2025-042-SITE03-0168,0168,2025-02-11,2025-04-06,SITE03,F,46,YEARS,WHITE,TRT01,Treatment A,USA,TRT01,Treatment A
CLIN-2025-042,DM,CLIN-2025-042-SITE04-0169,0169,2025-05-09,2025-06-30,SITE04,M,55,YEARS,WHITE,TRT02,Treatment B,CAN,TRT02,Treatment B
CLIN-2025-042,DM,CLIN-2025-042-SITE05-0170,0170,2025-07-01,2025-08-20,SITE05,M,72,YEARS,WHITE,TRT02,Treatment B,GBR,TRT02,Treatment B
CLIN-2025-042,DM,CLIN-2025-042-SITE01-0171,0171,2025-07-03,2025-08-25,SITE01,F,35,YEARS,ASIAN,TRT01,Treatment A,USA,TRT01,Treatment A
CLIN-2025-042,DM,CLIN-2025-042-SITE02-0172,0172,2025-02-06,2025-04-06,SITE02,M,52,YEARS,WHITE,TRT01,Treatment A,USA,TRT01,Treatment A
CLIN-2025-042,DM,CLIN-2025-042-SITE03-0173,0173,2025-04-24,2025-06-14,SITE03,F,41,YEARS,WHITE,TRT01,Treatment A,USA,TRT01,Treatment A
CLIN-2025-042,DM,CLIN-2025-042-SITE04-0174,0174,2025-01-31,2025-03-29,SITE04,M,45,YEARS,WHITE,PBO,Placebo,CAN,PBO,Placebo
CLIN-2025-042,DM,CLIN-2025-042-SITE05-0175,0175,2025-03-25,2025-06-01,SITE05,F,53,YEARS,WHITE,TRT02,Treatment B,GBR,TRT02,Treatment B
CLIN-2025-042,DM,CLIN-2025-042-SITE01-0176,0176,2025-02-05,2025-03-30,SITE01,M,45,YEARS,BLACK,PBO,Placebo,USA,PBO,Placebo
CLIN-2025-042,DM,CLIN-2025-042-SITE02-0177,0177,2025-01-26,2025-04-02,SITE02,F,62,YEARS,WHITE,TRT01,Treatment A,USA,TRT01,Treatment A
CLIN-2025-042,DM,CLIN-2025-042-SITE03-0178,0178,2025-02-12,2025-04-14,SITE03,F,22,YEARS,WHITE,PBO,Placebo,USA,PBO,Placebo
CLIN-2025-042,DM,CLIN-2025-042-SITE04-0179,0179,2025-06-02,2025-07-22,SITE04,M,68,YEARS,BLACK,TRT01,Treatment A,CAN,TRT01,Treatment A
CLIN-2025-042,DM,CLIN-2025-042-SITE05-0180,0180,2025-02-12,2025-04-06,SITE05,M,44,YEARS,WHITE,TRT01,Treatment A,GBR,TRT01,Treatment A
CLIN-2025-042,DM,CLIN-2025-042-SITE01-0181,0181,2025-06-20,2025-08-19,SITE01,M,48,YEARS,BLACK,TRT02,Treatment B,USA,TRT02,Treatment B
CLIN-2025-042,DM,CLIN-2025-042-SITE02-0182,0182,2025-04-16,2025-06-19,SITE02,M,36,YEARS,WHITE,PBO,Placebo,USA,PBO,Placebo
CLIN-2025-042,DM,CLIN-2025-042-SITE03-0183,0183,2025-05-25,2025-07-14,SITE03,M,59,YEARS,WHITE,TRT01,Treatment A,USA,TRT01,Treatment A
CLIN-2025-042,DM,CLIN-2025-042-SITE04-0184,0184,2025-02-01,2025-04-06,SITE04,M,57,YEARS,WHITE,TRT02,Treatment B,CAN,TRT02,Treatment B
CLIN-2025-042,DM,CLIN-2025-042-SITE05-0185,0185,2025-04-17,2025-06-13,SITE05,F,51,YEARS,WHITE,TRT01,Treatment A,GBR,TRT01,Treatment A
CLIN-2025-042,DM,CLIN-2025-042-SITE01-0186,0186,2025-03-15,2025-05-06,SITE01,M,54,YEARS,WHITE,TRT01,Treatment A,USA,TRT01,Treatment A
CLIN-2025-042,DM,CLIN-2025-042-SITE02-0187,0187,2025-05-20,2025-07-20,SITE02,M,22,YEARS,WHITE,TRT02,Treatment B,USA,TRT02,Treatment B
CLIN-2025-042,DM,CLIN-2025-042-SITE03-0188,0188,2025-05-24,2025-07-20,SITE03,M,49,YEARS,WHITE,TRT01,Treatment A,USA,TRT01,Treatment A
CLIN-2025-042,DM,CLIN-2025-042-SITE04-0189,0189,2025-03-19,2025-05-25,SITE04,M,21,YEARS,BLACK,TRT01,Treatment A,CAN,TRT01,Treatment A
CLIN-2025-042,DM,CLIN-2025-042-SITE05-0190,0190,2025-05-30,2025-07-29,SITE05,M,56,YEARS,WHITE,TRT02,Treatment B,GBR,TRT02,Treatment B
CLIN-2025-042,DM,CLIN-2025-042-SITE01-0191,0191,2025-06-23,2025-08-26,SITE01,M,67,YEARS,WHITE,PBO,Placebo,USA,PBO,Placebo
CLIN-2025-042,DM,CLIN-2025-042-SITE02-0192,0192,2025-01-16,2025-03-07,SITE02,M,58,YEARS,WHITE,TRT01,Treatment A,USA,TRT01,Treatment A
CLIN-2025-042,DM,CLIN-2025-042-SITE03-0193,0193,2025-06-13,2025-08-08,SITE03,M,71,YEARS,ASIAN,TRT01,Treatment A,USA,TRT01,Treatment A
CLIN-2025-042,DM,CLIN-2025-042-SITE04-0194,0194,2025-03-04,2025-04-30,SITE04,F,54,YEARS,BLACK,TRT01,Treatment A,CAN,TRT01,Treatment A
CLIN-2025-042,DM,CLIN-2025-042-SITE05-0195,0195,2025-04-27,2025-06-24,SITE05,F,50,YEARS,ASIAN,PBO,Placebo,GBR,PBO,Placebo
CLIN-2025-042,DM,CLIN-2025-042-SITE01-0196,0196,2025-01-21,2025-03-22,SITE01,F,55,YEARS,WHITE,PBO,Placebo,USA,PBO,Placebo
CLIN-2025-042,DM,CLIN-2025-042-SITE02-0197,0197,2025-01-17,2025-03-16,SITE02,M,70,YEARS,WHITE,TRT02,Treatment B,USA,TRT02,Treatment B
CLIN-2025-042,DM,CLIN-2025-042-SITE03-0198,0198,2025-05-16,2025-07-23,SITE03,F,38,YEARS,WHITE,TRT02,Treatment B,USA,TRT02,Treatment B
CLIN-2025-042,DM,CLIN-2025-042-SITE04-0199,0199,2025-02-15,2025-04-24,SITE04,M,52,YEARS,WHITE,TRT02,Treatment B,CAN,TRT02,Treatment B
CLIN-2025-042,DM,CLIN-2025-042-SITE05-0200,0200,2025-04-17,2025-06-20,SITE05,M,18,YEARS,WHITE,TRT02,Treatment B,GBR,TRT02,Treatment B
CLIN-2025-042,DM,CLIN-2025-042-SITE01-0201,0201,2025-02-07,2025-04-17,SITE01,F,58,YEARS,WHITE,TRT02,Treatment B,USA,TRT02,Treatment B
CLIN-2025-042,DM,CLIN-2025-042-SITE02-0202,0202,2025-04-29,2025-06-21,SITE02,M,56,YEARS,WHITE,TRT02,Treatment B,USA,TRT02,Treatment B
CLIN-2025-042,DM,CLIN-2025-042-SITE03-0203,0203,2025-06-27,2025-08-21,SITE03,F,25,YEARS,WHITE,TRT02,Treatment B,USA,TRT02,Treatment B
CLIN-2025-042,DM,CLIN-2025-042-SITE04-0204,0204,2025-02-09,2025-04-07,SITE04,M,21,YEARS,WHITE,TRT01,Treatment A,CAN,TRT01,Treatment A
CLIN-2025-042,DM,CLIN-2025-042-SITE05-0205,0205,2025-01-16,2025-03-11,SITE05,F,20,YEARS,ASIAN,TRT01,Treatment A,GBR,TRT01,Treatment A
CLIN-2025-042,DM,CLIN-2025-042-SITE01-0206,0206,2025-04-08,2025-05-29,SITE01,M,44,YEARS,BLACK,TRT02,Treatment B,USA,TRT02,Treatment B
CLIN-2025-042,DM,CLIN-2025-042-SITE02-0207,0207,2025-06-26,2025-08-19,SITE02,M,70,YEARS,WHITE,TRT01,Treatment A,USA,TRT01,Treatment A
CLIN-2025-042,DM,CLIN-2025-042-SITE03-0208,0208,2025-01-24,2025-03-17,SITE03,M,68,YEARS,WHITE,TRT01,Treatment A,USA,TRT01,Treatment A
CLIN-2025-042,DM,CLIN-2025-042-SITE04-0209,0209,2025-04-29,2025-06-18,SITE04,M,53,YEARS,WHITE,TRT02,Treatment B,CAN,TRT02,Treatment B
CLIN-2025-042,DM,CLIN-2025-042-SITE05-0210,0210,2025-05-01,2025-06-24,SITE05,M,46,YEARS,WHITE,TRT01,Treatment A,GBR,TRT01,Treatment A
CLIN-2025-042,DM,CLIN-2025-042-SITE01-0211,0211,2025-03-11,2025-05-14,SITE01,F,41,YEARS,WHITE,TRT02,Treatment B,USA,TRT02,Treatment B
CLIN-2025-042,DM,CLIN-2025-042-SITE02-0212,0212,2025-02-03,2025-03-25,SITE02,M,42,YEARS,WHITE,TRT02,Treatment B,USA,TRT02,Treatment B
CLIN-2025-042,DM,CLIN-2025-042-SITE03-0213,0213,2025-07-12,2025-09-13,SITE03,F,37,YEARS,BLACK,TRT01,Treatment A,USA,TRT01,Treatment A
CLIN-2025-042,DM,CLIN-2025-042-SITE04-0214,0214,2025-02-12,2025-04-09,SITE04,M,18,YEARS,WHITE,TRT01,Treatment A,CAN,TRT01,Treatment A
CLIN-2025-042,DM,CLIN-2025-042-SITE05-0215,0215,2025-04-08,2025-06-09,SITE05,M,45,YEARS,WHITE,TRT02,Treatment B,GBR,TRT02,Treatment B
CLIN-2025-042,DM,CLIN-2025-042-SITE01-0216,0216,2025-06-20,2025-08-14,SITE01,F,46,YEARS,WHITE,TRT02,Treatment B,USA,TRT02,Treatment B
CLIN-2025-042,DM,CLIN-2025-042-SITE02-0217,0217,2025-07-04,2025-09-01,SITE02,M,55,YEARS,ASIAN,PBO,Placebo,USA,PBO,Placebo
CLIN-2025-042,DM,CLIN-2025-042-SITE03-0218,0218,2025-04-13,2025-06-15,SITE03,F,37,YEARS,WHITE,TRT01,Treatment A,USA,TRT01,Treatment A
CLIN-2025-042,DM,CLIN-2025-042-SITE04-0219,0219,2025-03-03,2025-04-26,SITE04,F,30,YEARS,WHITE,PBO,Placebo,CAN,PBO,Placebo
CLIN-2025-042,DM,CLIN-2025-042-SITE05-0220,0220,2025-04-13,2025-06-17,SITE05,F,38,YEARS,WHITE,PBO,Placebo,GBR,PBO,Placebo
CLIN-2025-042,DM,CLIN-2025-042-SITE01-0221,0221,2025-04-22,2025-06-16,SITE01,M,60,YEARS,BLACK,TRT01,Treatment A,USA,TRT01,Treatment A
CLIN-2025-042,DM,CLIN-2025-042-SITE02-0222,0222,2025-03-30,2025-05-19,SITE02,M,53,YEARS,WHITE,TRT02,Treatment B,USA,TRT02,Treatment B
CLIN-2025-042,DM,CLIN-2025-042-SITE03-0223,0223,2025-03-31,2025-05-26,SITE03,F,58,YEARS,WHITE,TRT01,Treatment A,USA,TRT01,Treatment A
CLIN-2025-042,DM,CLIN-2025-042-SITE04-0224,0224,2025-04-26,2025-06-25,SITE04,F,18,YEARS,BLACK,TRT02,Treatment B,CAN,TRT02,Treatment B
CLIN-2025-042,DM,CLIN-2025-042-SITE05-0225,0225,2025-01-17,2025-03-15,SITE05,M,38,YEARS,WHITE,TRT02,Treatment B,GBR,TRT02,Treatment B
CLIN-2025-042,DM,CLIN-2025-042-SITE01-0226,0226,2025-02-20,2025-04-25,SITE01,F,44,YEARS,WHITE,TRT01,Treatment A,USA,TRT01,Treatment A
CLIN-2025-042,DM,CLIN-2025-042-SITE02-0227,0227,2025-05-02,2025-07-01,SITE02,M,56,YEARS,WHITE,PBO,Placebo,USA,PBO,Placebo
CLIN-2025-042,DM,CLIN-2025-042-SITE03-0228,0228,2025-02-04,2025-04-07,SITE03,M,49,YEARS,WHITE,TRT01,Treatment A,USA,TRT01,Treatment A
CLIN-2025-042,DM,CLIN-2025-042-SITE04-0229,0229,2025-03-07,2025-05-09,SITE04,M,47,YEARS,WHITE,TRT01,Treatment A,CAN,TRT01,Treatment A
CLIN-2025-042,DM,CLIN-2025-042-SITE05-0230,0230,2025-07-10,2025-09-10,SITE05,M,65,YEARS,WHITE,TRT02,Treatment B,GBR,TRT02,Treatment B
CLIN-2025-042,DM,CLIN-2025-042-SITE01-0231,0231,2025-03-29,2025-05-24,SITE01,F,35,YEARS,WHITE,TRT02,Treatment B,USA,TRT02,Treatment B
CLIN-2025-042,DM,CLIN-2025-042-SITE02-0232,0232,2025-05-12,2025-07-07,SITE02,F,49,YEARS,WHITE,PBO,Placebo,USA,PBO,Placebo
CLIN-2025-042,DM,CLIN-2025-042-SITE03-0233,0233,2025-06-04,2025-08-01,SITE03,F,29,YEARS,WHITE,TRT01,Treatment A,USA,TRT01,Treatment A
CLIN-2025-042,DM,CLIN-2025-042-SITE04-0234,0234,2025-03-04,2025-04-27,SITE04,M,52,YEARS,BLACK,TRT02,Treatment B,CAN,TRT02,Treatment B
CLIN-2025-042,DM,CLIN-2025-042-SITE05-0235,0235,2025-04-13,2025-06-19,SITE05,F,41,YEARS,WHITE,TRT02,Treatment B,GBR,TRT02,Treatment B
CLIN-2025-042,DM,CLIN-2025-042-SITE01-0236,0236,2025-06-24,2025-08-29,SITE01,M,28,YEARS,WHITE,PBO,Placebo,USA,PBO,Placebo
CLIN-2025-042,DM,CLIN-2025-042-SITE02-0237,0237,2025-01-25,2025-03-25,SITE02,M,36,YEARS,WHITE,TRT01,Treatment A,USA,TRT01,Treatment A
CLIN-2025-042,DM,CLIN-2025-042-SITE03-0238,0238,2025-06-09,2025-07-31,SITE03,M,47,YEARS,WHITE,TRT02,Treatment B,USA,TRT02,Treatment B
CLIN-2025-042,DM,CLIN-2025-042-SITE04-0239,0239,2025-02-07,2025-04-11,SITE04,M,53,YEARS,WHITE,TRT01,Treatment A,CAN,TRT01,Treatment A
CLIN-2025-042,DM,CLIN-2025-042-SITE05-0240,0240,2025-04-21,2025-06-13,SITE05,M,69,YEARS,WHITE,TRT01,Treatment A,GBR,TRT01,Treatment A
CLIN-2025-042,DM,CLIN-2025-042-SITE01-0241,0241,2025-01-27,2025-04-03,SITE01,F,37,YEARS,WHITE,TRT01,Treatment A,USA,TRT01,Treatment A
CLIN-2025-042,DM,CLIN-2025-042-SITE02-0242,0242,2025-03-22,2025-05-22,SITE02,M,48,YEARS,WHITE,TRT02,Treatment B,USA,TRT02,Treatment B
CLIN-2025-042,DM,CLIN-2025-042-SITE03-0243,0243,2025-01-16,2025-03-12,SITE03,F,41,YEARS,WHITE,PBO,Placebo,USA,PBO,Placebo
CLIN-2025-042,DM,CLIN-2025-042-SITE04-0244,0244,2025-04-01,2025-06-04,SITE04,M,70,YEARS,WHITE,PBO,Placebo,CAN,PBO,Placebo
CLIN-2025-042,DM,CLIN-2025-042-SITE05-0245,0245,2025-06-07,2025-08-07,SITE05,M,61,YEARS,ASIAN,TRT02,Treatment B,GBR,TRT02,Treatment B
CLIN-2025-042,DM,CLIN-2025-042-SITE01-0246,0246,2025-04-28,2025-06-21,SITE01,F,54,YEARS,BLACK,TRT01,Treatment A,USA,TRT01,Treatment A
CLIN-2025-042,DM,CLIN-2025-042-SITE02-0247,0247,2025-04-08,2025-06-02,SITE02,M,51,YEARS,WHITE,TRT02,Treatment B,USA,TRT02,Treatment B
CLIN-2025-042,DM,CLIN-2025-042-SITE03-0248,0248,2025-06-05,2025-07-28,SITE03,M,50,YEARS,WHITE,TRT01,Treatment A,USA,TRT01,Treatment A
CLIN-2025-042,DM,CLIN-2025-042-SITE04-0249,0249,2025-03-30,2025-05-21,SITE04,M,75,YEARS,WHITE,TRT01,Treatment A,CAN,TRT01,Treatment A
CLIN-2025-042,DM,CLIN-2025-042-SITE05-0250,0250,2025-04-10,2025-06-03,SITE05,M,28,YEARS,WHITE,TRT02,Treatment B,GBR,TRT02,Treatment B
CLIN-2025-042,DM,CLIN-2025-042-SITE01-0251,0251,2025-07-06,2025-08-27,SITE01,F,71,YEARS,WHITE,TRT02,Treatment B,USA,TRT02,Treatment B
CLIN-2025-042,DM,CLIN-2025-042-SITE02-0252,0252,2025-06-06,2025-07-28,SITE02,M,48,YEARS,BLACK,PBO,Placebo,USA,PBO,Placebo
CLIN-2025-042,DM,CLIN-2025-042-SITE03-0253,0253,2025-01-24,2025-03-16,SITE03,M,75,YEARS,BLACK,PBO,Placebo,USA,PBO,Placebo
CLIN-2025-042,DM,CLIN-2025-042-SITE04-0254,0254,2025-07-02,2025-08-26,SITE04,M,40,YEARS,WHITE,TRT02,Treatment B,CAN,TRT02,Treatment B
CLIN-2025-042,DM,CLIN-2025-042-SITE05-0255,0255,2025-02-08,2025-04-13,SITE05,F,52,YEARS,WHITE,TRT01,Treatment A,GBR,TRT01,Treatment A
CLIN-2025-042,DM,CLIN-2025-042-SITE01-0256,0256,2025-06-09,2025-08-03,SITE01,M,45,YEARS,WHITE,TRT02,Treatment B,USA,TRT02,Treatment B
CLIN-2025-042,DM,CLIN-2025-042-SITE02-0257,0257,2025-02-14,2025-04-23,SITE02,F,36,YEARS,WHITE,TRT01,Treatment A,USA,TRT01,Treatment A
CLIN-2025-042,DM,CLIN-2025-042-SITE03-0258,0258,2025-04-07,2025-06-04,SITE03,M,35,YEARS,WHITE,TRT02,Treatment B,USA,TRT02,Treatment B
CLIN-2025-042,DM,CLIN-2025-042-SITE04-0259,0259,2025-04-04,2025-06-08,SITE04,M,47,YEARS,ASIAN,TRT01,Treatment A,CAN,TRT01,Treatment A
CLIN-2025-042,DM,CLIN-2025-042-SITE05-0260,0260,2025-03-07,2025-04-29,SITE05,F,45,YEARS,WHITE,TRT01,Treatment A,GBR,TRT01,Treatment A
CLIN-2025-042,DM,CLIN-2025-042-SITE01-0261,0261,2025-03-17,2025-05-08,SITE01,M,63,YEARS,BLACK,PBO,Placebo,USA,PBO,Placebo
CLIN-2025-042,DM,CLIN-2025-042-SITE02-0262,0262,2025-05-24,2025-07-18,SITE02,M,40,YEARS,BLACK,TRT01,Treatment A,USA,TRT01,Treatment A
CLIN-2025-042,DM,CLIN-2025-042-SITE03-0263,0263,2025-03-20,2025-05-21,SITE03,M,30,YEARS,WHITE,TRT02,Treatment B,USA,TRT02,Treatment B
CLIN-2025-042,DM,CLIN-2025-042-SITE04-0264,0264,2025-05-11,2025-07-03,SITE04,F,44,YEARS,WHITE,PBO,Placebo,CAN,PBO,Placebo
CLIN-2025-042,DM,CLIN-2025-042-SITE05-0265,0265,2025-07-13,2025-09-06,SITE05,M,49,YEARS,ASIAN,PBO,Placebo,GBR,PBO,Placebo
CLIN-2025-042,DM,CLIN-2025-042-SITE01-0266,0266,2025-04-21,2025-06-19,SITE01,F,34,YEARS,WHITE,TRT01,Treatment A,USA,TRT01,Treatment A
CLIN-2025-042,DM,CLIN-2025-042-SITE02-0267,0267,2025-02-17,2025-04-15,SITE02,F,64,YEARS,WHITE,PBO,Placebo,USA,PBO,Placebo
CLIN-2025-042,DM,CLIN-2025-042-SITE03-0268,0268,2025-06-23,2025-08-23,SITE03,M,68,YEARS,BLACK,TRT01,Treatment A,USA,TRT01,Treatment A
CLIN-2025-042,DM,CLIN-2025-042-SITE04-0269,0269,2025-02-26,2025-04-17,SITE04,M,24,YEARS,WHITE,TRT01,Treatment A,CAN,TRT01,Treatment A
CLIN-2025-042,DM,CLIN-2025-042-SITE05-0270,0270,2025-02-11,2025-04-20,SITE05,M,30,YEARS,WHITE,TRT02,Treatment B,GBR,TRT02,Treatment B
CLIN-2025-042,DM,CLIN-2025-042-SITE01-0271,0271,2025-03-19,2025-05-17,SITE01,M,59,YEARS,WHITE,TRT02,Treatment B,USA,TRT02,Treatment B
CLIN-2025-042,DM,CLIN-2025-042-SITE02-0272,0272,2025-03-04,2025-04-26,SITE02,F,33,YEARS,BLACK,TRT01,Treatment A,USA,TRT01,Treatment A
CLIN-2025-042,DM,CLIN-2025-042-SITE03-0273,0273,2025-05-08,2025-07-06,SITE03,F,66,YEARS,BLACK,TRT02,Treatment B,USA,TRT02,Treatment B
CLIN-2025-042,DM,CLIN-2025-042-SITE04-0274,0274,2025-01-25,2025-03-25,SITE04,M,71,YEARS,ASIAN,TRT02,Treatment B,CAN,TRT02,Treatment B
CLIN-2025-042,DM,CLIN-2025-042-SITE05-0275,0275,2025-03-14,2025-05-16,SITE05,M,53,YEARS,WHITE,TRT01,Treatment A,GBR,TRT01,Treatment A
CLIN-2025-042,DM,CLIN-2025-042-SITE01-0276,0276,2025-07-07,2025-09-11,SITE01,F,47,YEARS,WHITE,TRT01,Treatment A,USA,TRT01,Treatment A
CLIN-2025-042,DM,CLIN-2025-042-SITE02-0277,0277,2025-01-26,2025-03-25,SITE02,F,26,YEARS,OTHER,PBO,Placebo,USA,PBO,Placebo
CLIN-2025-042,DM,CLIN-2025-042-SITE03-0278,0278,2025-06-14,2025-08-14,SITE03,M,54,YEARS,WHITE,TRT02,Treatment B,USA,TRT02,Treatment B
CLIN-2025-042,DM,CLIN-2025-042-SITE04-0279,0279,2025-04-16,2025-06-17,SITE04,M,50,YEARS,ASIAN,TRT01,Treatment A,CAN,TRT01,Treatment A
CLIN-2025-042,DM,CLIN-2025-042-SITE05-0280,0280,2025-04-12,2025-06-12,SITE05,F,35,YEARS,WHITE,TRT02,Treatment B,GBR,TRT02,Treatment B
CLIN-2025-042,DM,CLIN-2025-042-SITE01-0281,0281,2025-05-12,2025-07-19,SITE01,M,47,YEARS,ASIAN,TRT02,Treatment B,USA,TRT02,Treatment B
CLIN-2025-042,DM,CLIN-2025-042-SITE02-0282,0282,2025-06-07,2025-08-03,SITE02,M,32,YEARS,BLACK,TRT01,Treatment A,USA,TRT01,Treatment A
CLIN-2025-042,DM,CLIN-2025-042-SITE03-0283,0283,2025-03-19,2025-05-17,SITE03,F,61,YEARS,ASIAN,TRT01,Treatment A,USA,TRT01,Treatment A
CLIN-2025-042,DM,CLIN-2025-042-SITE04-0284,0284,2025-05-06,2025-07-07,SITE04,F,32,YEARS,WHITE,TRT02,Treatment B,CAN,TRT02,Treatment B
CLIN-2025-042,DM,CLIN-2025-042-SITE05-0285,0285,2025-01-26,2025-04-02,SITE05,M,57,YEARS,BLACK,PBO,Placebo,GBR,PBO,Placebo
CLIN-2025-042,DM,CLIN-2025-042-SITE01-0286,0286,2025-03-25,2025-06-01,SITE01,F,56,YEARS,WHITE,PBO,Placebo,USA,PBO,Placebo
CLIN-2025-042,DM,CLIN-2025-042-SITE02-0287,0287,2025-02-07,2025-03-31,SITE02,M,39,YEARS,WHITE,TRT02,Treatment B,USA,TRT02,Treatment B
CLIN-2025-042,DM,CLIN-2025-042-SITE03-0288,0288,2025-01-28,2025-03-21,SITE03,M,38,YEARS,WHITE,PBO,Placebo,USA,PBO,Placebo
CLIN-2025-042,DM,CLIN-2025-042-SITE04-0289,0289,2025-02-07,2025-03-30,SITE04,F,40,YEARS,WHITE,TRT02,Treatment B,CAN,TRT02,Treatment B
CLIN-2025-042,DM,CLIN-2025-042-SITE05-0290,0290,2025-06-15,2025-08-16,SITE05,F,45,YEARS,OTHER,TRT01,Treatment A,GBR,TRT01,Treatment A
CLIN-2025-042,DM,CLIN-2025-042-SITE01-0291,0291,2025-02-02,2025-04-08,SITE01,M,50,YEARS,WHITE,PBO,Placebo,USA,PBO,Placebo
CLIN-2025-042,DM,CLIN-2025-042-SITE02-0292,0292,2025-03-02,2025-05-01,SITE02,F,36,YEARS,WHITE,TRT01,Treatment A,USA,TRT01,Treatment A
CLIN-2025-042,DM,CLIN-2025-042-SITE03-0293,0293,2025-06-11,2025-08-15,SITE03,M,57,YEARS,OTHER,TRT02,Treatment B,USA,TRT02,Treatment B
CLIN-2025-042,DM,CLIN-2025-042-SITE04-0294,0294,2025-06-01,2025-08-07,SITE04,M,58,YEARS,BLACK,TRT02,Treatment B,CAN,TRT02,Treatment B
CLIN-2025-042,DM,CLIN-2025-042-SITE05-0295,0295,2025-04-05,2025-06-06,SITE05,F,36,YEARS,WHITE,TRT02,Treatment B,GBR,TRT02,Treatment B
CLIN-2025-042,DM,CLIN-2025-042-SITE01-0296,0296,2025-01-19,2025-03-13,SITE01,M,25,YEARS,WHITE,TRT02,Treatment B,USA,TRT02,Treatment B
CLIN-2025-042,DM,CLIN-2025-042-SITE02-0297,0297,2025-05-23,2025-07-15,SITE02,F,50,YEARS,WHITE,TRT02,Treatment B,USA,TRT02,Treatment B
CLIN-2025-042,DM,CLIN-2025-042-SITE03-0298,0298,2025-02-19,2025-04-21,SITE03,M,28,YEARS,WHITE,TRT02,Treatment B,USA,TRT02,Treatment B
CLIN-2025-042,DM,CLIN-2025-042-SITE04-0299,0299,2025-01-28,2025-03-28,SITE04,M,40,YEARS,BLACK,TRT01,Treatment A,CAN,TRT01,Treatment A
CLIN-2025-042,DM,CLIN-2025-042-SITE05-0300,0300,2025-05-01,2025-07-09,SITE05,F,68,YEARS,WHITE,TRT02,Treatment B,GBR,TRT02,Treatment B
CLIN-2025-042,DM,CLIN-2025-042-SITE01-0301,0301,2025-01-21,2025-03-17,SITE01,F,46,YEARS,ASIAN,TRT01,Treatment A,USA,TRT01,Treatment A
CLIN-2025-042,DM,CLIN-2025-042-SITE02-0302,0302,2025-05-22,2025-07-24,SITE02,F,52,YEARS,OTHER,TRT02,Treatment B,USA,TRT02,Treatment B
CLIN-2025-042,DM,CLIN-2025-042-SITE03-0303,0303,2025-06-28,2025-09-02,SITE03,M,46,YEARS,WHITE,TRT02,Treatment B,USA,TRT02,Treatment B
CLIN-2025-042,DM,CLIN-2025-042-SITE04-0304,0304,2025-05-21,2025-07-19,SITE04,M,50,YEARS,BLACK,TRT01,Treatment A,CAN,TRT01,Treatment A
CLIN-2025-042,DM,CLIN-2025-042-SITE05-0305,0305,2025-03-16,2025-05-06,SITE05,M,66,YEARS,WHITE,PBO,Placebo,GBR,PBO,Placebo
CLIN-2025-042,DM,CLIN-2025-042-SITE01-0306,0306,2025-04-22,2025-06-11,SITE01,M,48,YEARS,WHITE,TRT01,Treatment A,USA,TRT01,Treatment A
CLIN-2025-042,DM,CLIN-2025-042-SITE02-0307,0307,2025-03-29,2025-05-19,SITE02,F,69,YEARS,WHITE,TRT01,Treatment A,USA,TRT01,Treatment A
CLIN-2025-042,DM,CLIN-2025-042-SITE03-0308,0308,2025-03-14,2025-05-12,SITE03,F,41,YEARS,BLACK,TRT01,Treatment A,USA,TRT01,Treatment A
CLIN-2025-042,DM,CLIN-2025-042-SITE04-0309,0309,2025-02-04,2025-04-14,SITE04,F,56,YEARS,WHITE,TRT01,Treatment A,CAN,TRT01,Treatment A
CLIN-2025-042,DM,CLIN-2025-042-SITE05-0310,0310,2025-05-10,2025-07-12,SITE05,M,57,YEARS,WHITE,TRT02,Treatment B,GBR,TRT02,Treatment B
CLIN-2025-042,DM,CLIN-2025-042-SITE01-0311,0311,2025-03-21,2025-05-12,SITE01,F,42,YEARS,WHITE,TRT02,Treatment B,USA,TRT02,Treatment B
CLIN-2025-042,DM,CLIN-2025-042-SITE02-0312,0312,2025-07-11,2025-09-09,SITE02,F,75,YEARS,OTHER,PBO,Placebo,USA,PBO,Placebo
CLIN-2025-042,DM,CLIN-2025-042-SITE03-0313,0313,2025-06-15,2025-08-12,SITE03,F,62,YEARS,WHITE,TRT02,Treatment B,USA,TRT02,Treatment B
CLIN-2025-042,DM,CLIN-2025-042-SITE04-0314,0314,2025-02-25,2025-05-05,SITE04,F,53,YEARS,WHITE,TRT02,Treatment B,CAN,TRT02,Treatment B
CLIN-2025-042,DM,CLIN-2025-042-SITE05-0315,0315,2025-02-10,2025-04-18,SITE05,M,75,YEARS,WHITE,TRT01,Treatment A,GBR,TRT01,Treatment A
CLIN-2025-042,DM,CLIN-2025-042-SITE01-0316,0316,2025-07-09,2025-09-07,SITE01,M,47,YEARS,BLACK,TRT02,Treatment B,USA,TRT02,Treatment B
CLIN-2025-042,DM,CLIN-2025-042-SITE02-0317,0317,2025-05-31,2025-07-31,SITE02,F,29,YEARS,BLACK,PBO,Placebo,USA,PBO,Placebo
CLIN-2025-042,DM,CLIN-2025-042-SITE03-0318,0318,2025-03-14,2025-05-07,SITE03,F,44,YEARS,WHITE,PBO,Placebo,USA,PBO,Placebo
CLIN-2025-042,DM,CLIN-2025-042-SITE04-0319,0319,2025-05-20,2025-07-13,SITE04,F,26,YEARS,ASIAN,PBO,Placebo,CAN,PBO,Placebo
CLIN-2025-042,DM,CLIN-2025-042-SITE05-0320,0320,2025-05-15,2025-07-14,SITE05,F,29,YEARS,BLACK,TRT02,Treatment B,GBR,TRT02,Treatment B
CLIN-2025-042,DM,CLIN-2025-042-SITE01-0321,0321,2025-05-25,2025-07-25,SITE01,M,53,YEARS,ASIAN,TRT01,Treatment A,USA,TRT01,Treatment A
CLIN-2025-042,DM,CLIN-2025-042-SITE02-0322,0322,2025-07-13,2025-09-02,SITE02,M,32,YEARS,WHITE,TRT01,Treatment A,USA,TRT01,Treatment A
CLIN-2025-042,DM,CLIN-2025-042-SITE03-0323,0323,2025-07-09,2025-09-13,SITE03,F,51,YEARS,WHITE,TRT02,Treatment B,USA,TRT02,Treatment B
CLIN-2025-042,DM,CLIN-2025-042-SITE04-0324,0324,2025-03-21,2025-05-12,SITE04,F,44,YEARS,WHITE,TRT02,Treatment B,CAN,TRT02,Treatment B
CLIN-2025-042,DM,CLIN-2025-042-SITE05-0325,0325,2025-05-18,2025-07-07,SITE05,F,58,YEARS,BLACK,PBO,Placebo,GBR,PBO,Placebo
CLIN-2025-042,DM,CLIN-2025-042-SITE01-0326,0326,2025-02-04,2025-03-28,SITE01,F,24,YEARS,WHITE,TRT01,Treatment A,USA,TRT01,Treatment A
CLIN-2025-042,DM,CLIN-2025-042-SITE02-0327,0327,2025-06-08,2025-08-03,SITE02,F,57,YEARS,WHITE,PBO,Placebo,USA,PBO,Placebo
CLIN-2025-042,DM,CLIN-2025-042-SITE03-0328,0328,2025-03-01,2025-04-25,SITE03,M,50,YEARS,WHITE,TRT01,Treatment A,USA,TRT01,Treatment A
CLIN-2025-042,DM,CLIN-2025-042-SITE04-0329,0329,2025-04-02,2025-06-10,SITE04,M,38,YEARS,OTHER,TRT02,Treatment B,CAN,TRT02,Treatment B
CLIN-2025-042,DM,CLIN-2025-042-SITE05-0330,0330,2025-05-04,2025-07-11,SITE05,F,43,YEARS,BLACK,TRT02,Treatment B,GBR,TRT02,Treatment B
CLIN-2025-042,DM,CLIN-2025-042-SITE01-0331,0331,2025-03-18,2025-05-15,SITE01,M,36,YEARS,ASIAN,PBO,Placebo,USA,PBO,Placebo
CLIN-2025-042,DM,CLIN-2025-042-SITE02-0332,0332,2025-03-16,2025-05-08,SITE02,M,57,YEARS,WHITE,TRT02,Treatment B,USA,TRT02,Treatment B
CLIN-2025-042,DM,CLIN-2025-042-SITE03-0333,0333,2025-04-13,2025-06-15,SITE03,F,29,YEARS,BLACK,TRT02,Treatment B,USA,TRT02,Treatment B
CLIN-2025-042,DM,CLIN-2025-042-SITE04-0334,0334,2025-01-22,2025-03-14,SITE04,F,28,YEARS,WHITE,PBO,Placebo,CAN,PBO,Placebo
CLIN-2025-042,DM,CLIN-2025-042-SITE05-0335,0335,2025-01-30,2025-04-06,SITE05,M,20,YEARS,BLACK,TRT01,Treatment A,GBR,TRT01,Treatment A
CLIN-2025-042,DM,CLIN-2025-042-SITE01-0336,0336,2025-03-03,2025-05-11,SITE01,M,37,YEARS,WHITE,TRT02,Treatment B,USA,TRT02,Treatment B
CLIN-2025-042,DM,CLIN-2025-042-SITE02-0337,0337,2025-05-31,2025-07-23,SITE02,F,28,YEARS,WHITE,TRT02,Treatment B,USA,TRT02,Treatment B
CLIN-2025-042,DM,CLIN-2025-042-SITE03-0338,0338,2025-02-04,2025-04-13,SITE03,M,43,YEARS,BLACK,TRT01,Treatment A,USA,TRT01,Treatment A
CLIN-2025-042,DM,CLIN-2025-042-SITE04-0339,0339,2025-04-16,2025-06-08,SITE04,M,75,YEARS,OTHER,TRT02,Treatment B,CAN,TRT02,Treatment B
CLIN-2025-042,DM,CLIN-2025-042-SITE05-0340,0340,2025-01-15,2025-03-13,SITE05,F,42,YEARS,WHITE,TRT02,Treatment B,GBR,TRT02,Treatment B
CLIN-2025-042,DM,CLIN-2025-042-SITE01-0341,0341,2025-01-26,2025-03-22,SITE01,M,38,YEARS,OTHER,TRT01,Treatment A,USA,TRT01,Treatment A
CLIN-2025-042,DM,CLIN-2025-042-SITE02-0342,0342,2025-07-01,2025-09-02,SITE02,F,34,YEARS,WHITE,TRT02,Treatment B,USA,TRT02,Treatment B
CLIN-2025-042,DM,CLIN-2025-042-SITE03-0343,0343,2025-03-04,2025-05-06,SITE03,M,49,YEARS,WHITE,TRT02,Treatment B,USA,TRT02,Treatment B
CLIN-2025-042,DM,CLIN-2025-042-SITE04-0344,0344,2025-03-17,2025-05-15,SITE04,M,49,YEARS,ASIAN,TRT02,Treatment B,CAN,TRT02,Treatment B
CLIN-2025-042,DM,CLIN-2025-042-SITE05-0345,0345,2025-02-24,2025-05-01,SITE05,M,46,YEARS,ASIAN,TRT01,Treatment A,GBR,TRT01,Treatment A
CLIN-2025-042,DM,CLIN-2025-042-SITE01-0346,0346,2025-06-10,2025-08-09,SITE01,M,18,YEARS,WHITE,TRT02,Treatment B,USA,TRT02,Treatment B
CLIN-2025-042,DM,CLIN-2025-042-SITE02-0347,0347,2025-03-31,2025-05-27,SITE02,F,56,YEARS,WHITE,TRT02,Treatment B,USA,TRT02,Treatment B
CLIN-2025-042,DM,CLIN-2025-042-SITE03-0348,0348,2025-01-22,2025-03-26,SITE03,M,67,YEARS,WHITE,PBO,Placebo,USA,PBO,Placebo
CLIN-2025-042,DM,CLIN-2025-042-SITE04-0349,0349,2025-04-06,2025-06-12,SITE04,M,32,YEARS,WHITE,TRT02,Treatment B,CAN,TRT02,Treatment B
CLIN-2025-042,DM,CLIN-2025-042-SITE05-0350,0350,2025-04-08,2025-06-13,SITE05,M,18,YEARS,WHITE,TRT02,Treatment B,GBR,TRT02,Treatment B
CLIN-2025-042,DM,CLIN-2025-042-SITE01-0351,0351,2025-02-12,2025-04-11,SITE01,F,48,YEARS,WHITE,PBO,Placebo,USA,PBO,Placebo
CLIN-2025-042,DM,CLIN-2025-042-SITE02-0352,0352,2025-02-22,2025-04-15,SITE02,F,58,YEARS,WHITE,TRT01,Treatment A,USA,TRT01,Treatment A
CLIN-2025-042,DM,CLIN-2025-042-SITE03-0353,0353,2025-06-07,2025-08-03,SITE03,F,49,YEARS,WHITE,TRT01,Treatment A,USA,TRT01,Treatment A
CLIN-2025-042,DM,CLIN-2025-042-SITE04-0354,0354,2025-04-25,2025-06-30,SITE04,M,73,YEARS,WHITE,TRT01,Treatment A,CAN,TRT01,Treatment A
CLIN-2025-042,DM,CLIN-2025-042-SITE05-0355,0355,2025-02-04,2025-04-05,SITE05,M,27,YEARS,WHITE,TRT01,Treatment A,GBR,TRT01,Treatment A
CLIN-2025-042,DM,CLIN-2025-042-SITE01-0356,0356,2025-04-22,2025-06-13,SITE01,M,58,YEARS,WHITE,TRT02,Treatment B,USA,TRT02,Treatment B
CLIN-2025-042,DM,CLIN-2025-042-SITE02-0357,0357,2025-03-30,2025-06-03,SITE02,M,40,YEARS,WHITE,TRT01,Treatment A,USA,TRT01,Treatment A
CLIN-2025-042,DM,CLIN-2025-042-SITE03-0358,0358,2025-06-19,2025-08-12,SITE03,F,43,YEARS,WHITE,TRT02,Treatment B,USA,TRT02,Treatment B
CLIN-2025-042,DM,CLIN-2025-042-SITE04-0359,0359,2025-02-02,2025-04-02,SITE04,F,23,YEARS,WHITE,PBO,Placebo,CAN,PBO,Placebo
CLIN-2025-042,DM,CLIN-2025-042-SITE05-0360,0360,2025-02-21,2025-04-16,SITE05,F,63,YEARS,ASIAN,TRT01,Treatment A,GBR,TRT01,Treatment A
CLIN-2025-042,DM,CLIN-2025-042-SITE01-0361,0361,2025-02-14,2025-04-08,SITE01,M,45,YEARS,WHITE,TRT02,Treatment B,USA,TRT02,Treatment B
CLIN-2025-042,DM,CLIN-2025-042-SITE02-0362,0362,2025-05-01,2025-06-29,SITE02,M,51,YEARS,WHITE,TRT01,Treatment A,USA,TRT01,Treatment A
CLIN-2025-042,DM,CLIN-2025-042-SITE03-0363,0363,2025-07-03,2025-08-26,SITE03,F,23,YEARS,WHITE,TRT02,Treatment B,USA,TRT02,Treatment B
CLIN-2025-042,DM,CLIN-2025-042-SITE04-0364,0364,2025-05-07,2025-07-08,SITE04,F,23,YEARS,WHITE,PBO,Placebo,CAN,PBO,Placebo
CLIN-2025-042,DM,CLIN-2025-042-SITE05-0365,0365,2025-02-05,2025-03-30,SITE05,F,75,YEARS,WHITE,PBO,Placebo,GBR,PBO,Placebo
CLIN-2025-042,DM,CLIN-2025-042-SITE01-0366,0366,2025-05-25,2025-07-23,SITE01,F,18,YEARS,BLACK,PBO,Placebo,USA,PBO,Placebo
CLIN-2025-042,DM,CLIN-2025-042-SITE02-0367,0367,2025-05-21,2025-07-21,SITE02,M,47,YEARS,WHITE,TRT02,Treatment B,USA,TRT02,Treatment B
CLIN-2025-042,DM,CLIN-2025-042-SITE03-0368,0368,2025-06-04,2025-08-07,SITE03,F,63,YEARS,WHITE,PBO,Placebo,USA,PBO,Placebo
CLIN-2025-042,DM,CLIN-2025-042-SITE04-0369,0369,2025-04-06,2025-06-02,SITE04,M,42,YEARS,BLACK,TRT02,Treatment B,CAN,TRT02,Treatment B
CLIN-2025-042,DM,CLIN-2025-042-SITE05-0370,0370,2025-04-25,2025-06-17,SITE05,F,66,YEARS,WHITE,PBO,Placebo,GBR,PBO,Placebo
CLIN-2025-042,DM,CLIN-2025-042-SITE01-0371,0371,2025-03-09,2025-05-10,SITE01,M,34,YEARS,BLACK,TRT02,Treatment B,USA,TRT02,Treatment B
CLIN-2025-042,DM,CLIN-2025-042-SITE02-0372,0372,2025-03-25,2025-05-30,SITE02,F,46,YEARS,WHITE,TRT01,Treatment A,USA,TRT01,Treatment A
CLIN-2025-042,DM,CLIN-2025-042-SITE03-0373,0373,2025-03-25,2025-05-17,SITE03,M,54,YEARS,WHITE,TRT02,Treatment B,USA,TRT02,Treatment B
CLIN-2025-042,DM,CLIN-2025-042-SITE04-0374,0374,2025-07-12,2025-09-13,SITE04,M,34,YEARS,WHITE,TRT02,Treatment B,CAN,TRT02,Treatment B
CLIN-2025-042,DM,CLIN-2025-042-SITE05-0375,0375,2025-05-29,2025-07-30,SITE05,M,29,YEARS,WHITE,TRT02,Treatment B,GBR,TRT02,Treatment B
CLIN-2025-042,DM,CLIN-2025-042-SITE01-0376,0376,2025-07-08,2025-09-09,SITE01,M,33,YEARS,BLACK,TRT01,Treatment A,USA,TRT01,Treatment A
CLIN-2025-042,DM,CLIN-2025-042-SITE02-0377,0377,2025-07-04,2025-08-25,SITE02,F,38,YEARS,WHITE,PBO,Placebo,USA,PBO,Placebo
CLIN-2025-042,DM,CLIN-2025-042-SITE03-0378,0378,2025-02-13,2025-04-18,SITE03,F,33,YEARS,WHITE,TRT01,Treatment A,USA,TRT01,Treatment A
CLIN-2025-042,DM,CLIN-2025-042-SITE04-0379,0379,2025-02-13,2025-04-10,SITE04,M,63,YEARS,WHITE,TRT01,Treatment A,CAN,TRT01,Treatment A
CLIN-2025-042,DM,CLIN-2025-042-SITE05-0380,0380,2025-05-22,2025-07-19,SITE05,F,23,YEARS,ASIAN,PBO,Placebo,GBR,PBO,Placebo
CLIN-2025-042,DM,CLIN-2025-042-SITE01-0381,0381,2025-01-23,2025-03-15,SITE01,M,20,YEARS,WHITE,TRT01,Treatment A,USA,TRT01,Treatment A
CLIN-2025-042,DM,CLIN-2025-042-SITE02-0382,0382,2025-07-06,2025-08-26,SITE02,M,20,YEARS,WHITE,TRT01,Treatment A,USA,TRT01,Treatment A
CLIN-2025-042,DM,CLIN-2025-042-SITE03-0383,0383,2025-06-08,2025-07-29,SITE03,F,42,YEARS,WHITE,TRT02,Treatment B,USA,TRT02,Treatment B
CLIN-2025-042,DM,CLIN-2025-042-SITE04-0384,0384,2025-02-17,2025-04-14,SITE04,M,46,YEARS,WHITE,TRT01,Treatment A,CAN,TRT01,Treatment A
CLIN-2025-042,DM,CLIN-2025-042-SITE05-0385,0385,2025-05-12,2025-07-07,SITE05,M,54,YEARS,OTHER,TRT01,Treatment A,GBR,TRT01,Treatment A
CLIN-2025-042,DM,CLIN-2025-042-SITE01-0386,0386,2025-03-12,2025-05-17,SITE01,F,26,YEARS,ASIAN,TRT01,Treatment A,USA,TRT01,Treatment A
CLIN-2025-042,DM,CLIN-2025-042-SITE02-0387,0387,2025-03-09,2025-05-17,SITE02,F,18,YEARS,WHITE,PBO,Placebo,USA,PBO,Placebo
CLIN-2025-042,DM,CLIN-2025-042-SITE03-0388,0388,2025-02-13,2025-04-07,SITE03,M,72,YEARS,BLACK,TRT01,Treatment A,USA,TRT01,Treatment A
CLIN-2025-042,DM,CLIN-2025-042-SITE04-0389,0389,2025-02-17,2025-04-25,SITE04,F,30,YEARS,WHITE,TRT02,Treatment B,CAN,TRT02,Treatment B
CLIN-2025-042,DM,CLIN-2025-042-SITE05-0390,0390,2025-04-17,2025-06-23,SITE05,M,59,YEARS,BLACK,TRT01,Treatment A,GBR,TRT01,Treatment A
CLIN-2025-042,DM,CLIN-2025-042-SITE01-0391,0391,2025-07-02,2025-08-26,SITE01,M,32,YEARS,WHITE,PBO,Placebo,USA,PBO,Placebo
CLIN-2025-042,DM,CLIN-2025-042-SITE02-0392,0392,2025-06-18,2025-08-08,SITE02,M,61,YEARS,BLACK,TRT01,Treatment A,USA,TRT01,Treatment A
CLIN-2025-042,DM,CLIN-2025-042-SITE03-0393,0393,2025-07-10,2025-09-03,SITE03,M,44,YEARS,WHITE,TRT02,Treatment B,USA,TRT02,Treatment B
CLIN-2025-042,DM,CLIN-2025-042-SITE04-0394,0394,2025-06-01,2025-08-04,SITE04,M,74,YEARS,BLACK,TRT02,Treatment B,CAN,TRT02,Treatment B
CLIN-2025-042,DM,CLIN-2025-042-SITE05-0395,0395,2025-05-02,2025-07-01,SITE05,F,29,YEARS,WHITE,PBO,Placebo,GBR,PBO,Placebo
CLIN-2025-042,DM,CLIN-2025-042-SITE01-0396,0396,2025-02-25,2025-05-02,SITE01,M,60,YEARS,OTHER,TRT02,Treatment B,USA,TRT02,Treatment B
CLIN-2025-042,DM,CLIN-2025-042-SITE02-0397,0397,2025-03-02,2025-05-06,SITE02,M,23,YEARS,WHITE,TRT02,Treatment B,USA,TRT02,Treatment B
CLIN-2025-042,DM,CLIN-2025-042-SITE03-0398,0398,2025-06-04,2025-07-27,SITE03,F,23,YEARS,WHITE,TRT02,Treatment B,USA,TRT02,Treatment B
CLIN-2025-042,DM,CLIN-2025-042-SITE04-0399,0399,2025-04-24,2025-06-25,SITE04,F,43,YEARS,ASIAN,TRT02,Treatment B,CAN,TRT02,Treatment B
CLIN-2025-042,DM,CLIN-2025-042-SITE05-0400,0400,2025-03-25,2025-05-25,SITE05,M,38,YEARS,BLACK,TRT02,Treatment B,GBR,TRT02,Treatment B
CLIN-2025-042,DM,CLIN-2025-042-SITE01-0401,0401,2025-02-04,2025-04-05,SITE01,M,18,YEARS,ASIAN,TRT02,Treatment B,USA,TRT02,Treatment B
CLIN-2025-042,DM,CLIN-2025-042-SITE02-0402,0402,2025-02-07,2025-03-30,SITE02,M,46,YEARS,WHITE,TRT01,Treatment A,USA,TRT01,Treatment A
CLIN-2025-042,DM,CLIN-2025-042-SITE03-0403,0403,2025-05-05,2025-06-29,SITE03,F,43,YEARS,WHITE,TRT02,Treatment B,USA,TRT02,Treatment B
CLIN-2025-042,DM,CLIN-2025-042-SITE04-0404,0404,2025-03-20,2025-05-28,SITE04,M,45,YEARS,WHITE,TRT02,Treatment B,CAN,TRT02,Treatment B
CLIN-2025-042,DM,CLIN-2025-042-SITE05-0405,0405,2025-02-10,2025-04-10,SITE05,F,41,YEARS,WHITE,TRT01,Treatment A,GBR,TRT01,Treatment A
CLIN-2025-042,DM,CLIN-2025-042-SITE01-0406,0406,2025-02-16,2025-04-13,SITE01,M,47,YEARS,WHITE,TRT01,Treatment A,USA,TRT01,Treatment A
CLIN-2025-042,DM,CLIN-2025-042-SITE02-0407,0407,2025-05-29,2025-07-21,SITE02,F,55,YEARS,WHITE,TRT01,Treatment A,USA,TRT01,Treatment A
CLIN-2025-042,DM,CLIN-2025-042-SITE03-0408,0408,2025-06-20,2025-08-17,SITE03,F,55,YEARS,WHITE,TRT01,Treatment A,USA,TRT01,Treatment A
CLIN-2025-042,DM,CLIN-2025-042-SITE04-0409,0409,2025-07-05,2025-08-27,SITE04,F,45,YEARS,OTHER,TRT01,Treatment A,CAN,TRT01,Treatment A
CLIN-2025-042,DM,CLIN-2025-042-SITE05-0410,0410,2025-03-14,2025-05-14,SITE05,F,48,YEARS,ASIAN,TRT01,Treatment A,GBR,TRT01,Treatment A
CLIN-2025-042,DM,CLIN-2025-042-SITE01-0411,0411,2025-04-07,2025-06-06,SITE01,F,58,YEARS,WHITE,TRT01,Treatment A,USA,TRT01,Treatment A
CLIN-2025-042,DM,CLIN-2025-042-SITE02-0412,0412,2025-07-08,2025-09-15,SITE02,M,45,YEARS,BLACK,PBO,Placebo,USA,PBO,Placebo
CLIN-2025-042,DM,CLIN-2025-042-SITE03-0413,0413,2025-07-07,2025-09-12,SITE03,F,44,YEARS,WHITE,TRT01,Treatment A,USA,TRT01,Treatment A
CLIN-2025-042,DM,CLIN-2025-042-SITE04-0414,0414,2025-06-29,2025-08-19,SITE04,M,56,YEARS,WHITE,TRT02,Treatment B,CAN,TRT02,Treatment B
CLIN-2025-042,DM,CLIN-2025-042-SITE05-0415,0415,2025-02-21,2025-04-29,SITE05,F,42,YEARS,WHITE,TRT01,Treatment A,GBR,TRT01,Treatment A
CLIN-2025-042,DM,CLIN-2025-042-SITE01-0416,0416,2025-05-02,2025-06-21,SITE01,M,25,YEARS,OTHER,TRT02,Treatment B,USA,TRT02,Treatment B
CLIN-2025-042,DM,CLIN-2025-042-SITE02-0417,0417,2025-03-25,2025-05-22,SITE02,M,21,YEARS,WHITE,TRT01,Treatment A,USA,TRT01,Treatment A
CLIN-2025-042,DM,CLIN-2025-042-SITE03-0418,0418,2025-05-12,2025-07-18,SITE03,F,51,YEARS,WHITE,TRT01,Treatment A,USA,TRT01,Treatment A
CLIN-2025-042,DM,CLIN-2025-042-SITE04-0419,0419,2025-04-22,2025-06-27,SITE04,F,51,YEARS,BLACK,PBO,Placebo,CAN,PBO,Placebo
CLIN-2025-042,DM,CLIN-2025-042-SITE05-0420,0420,2025-04-20,2025-06-12,SITE05,M,45,YEARS,WHITE,TRT02,Treatment B,GBR,TRT02,Treatment B
CLIN-2025-042,DM,CLIN-2025-042-SITE01-0421,0421,2025-04-12,2025-06-18,SITE01,F,40,YEARS,WHITE,TRT01,Treatment A,USA,TRT01,Treatment A
CLIN-2025-042,DM,CLIN-2025-042-SITE02-0422,0422,2025-07-03,2025-09-01,SITE02,M,44,YEARS,ASIAN,PBO,Placebo,USA,PBO,Placebo
CLIN-2025-042,DM,CLIN-2025-042-SITE03-0423,0423,2025-07-09,2025-09-01,SITE03,M,58,YEARS,WHITE,TRT02,Treatment B,USA,TRT02,Treatment B
CLIN-2025-042,DM,CLIN-2025-042-SITE04-0424,0424,2025-06-18,2025-08-08,SITE04,F,41,YEARS,WHITE,TRT01,Treatment A,CAN,TRT01,Treatment A
CLIN-2025-042,DM,CLIN-2025-042-SITE05-0425,0425,2025-06-11,2025-08-02,SITE05,M,19,YEARS,WHITE,TRT01,Treatment A,GBR,TRT01,Treatment A
CLIN-2025-042,DM,CLIN-2025-042-SITE01-0426,0426,2025-04-15,2025-06-21,SITE01,F,38,YEARS,WHITE,TRT01,Treatment A,USA,TRT01,Treatment A
CLIN-2025-042,DM,CLIN-2025-042-SITE02-0427,0427,2025-05-10,2025-07-08,SITE02,F,32,YEARS,OTHER,PBO,Placebo,USA,PBO,Placebo
CLIN-2025-042,DM,CLIN-2025-042-SITE03-0428,0428,2025-07-02,2025-08-24,SITE03,F,56,YEARS,WHITE,TRT02,Treatment B,USA,TRT02,Treatment B
CLIN-2025-042,DM,CLIN-2025-042-SITE04-0429,0429,2025-02-09,2025-04-18,SITE04,M,56,YEARS,ASIAN,TRT02,Treatment B,CAN,TRT02,Treatment B
CLIN-2025-042,DM,CLIN-2025-042-SITE05-0430,0430,2025-05-26,2025-07-24,SITE05,F,40,YEARS,WHITE,TRT02,Treatment B,GBR,TRT02,Treatment B
CLIN-2025-042,DM,CLIN-2025-042-SITE01-0431,0431,2025-05-06,2025-07-13,SITE01,F,46,YEARS,WHITE,TRT01,Treatment A,USA,TRT01,Treatment A
CLIN-2025-042,DM,CLIN-2025-042-SITE02-0432,0432,2025-05-23,2025-07-14,SITE02,M,40,YEARS,ASIAN,PBO,Placebo,USA,PBO,Placebo
CLIN-2025-042,DM,CLIN-2025-042-SITE03-0433,0433,2025-02-07,2025-04-07,SITE03,F,18,YEARS,WHITE,TRT02,Treatment B,USA,TRT02,Treatment B
CLIN-2025-042,DM,CLIN-2025-042-SITE04-0434,0434,2025-04-19,2025-06-16,SITE04,M,63,YEARS,WHITE,PBO,Placebo,CAN,PBO,Placebo
CLIN-2025-042,DM,CLIN-2025-042-SITE05-0435,0435,2025-06-01,2025-07-28,SITE05,M,28,YEARS,WHITE,TRT01,Treatment A,GBR,TRT01,Treatment A
CLIN-2025-042,DM,CLIN-2025-042-SITE01-0436,0436,2025-03-31,2025-05-25,SITE01,F,28,YEARS,WHITE,TRT02,Treatment B,USA,TRT02,Treatment B
CLIN-2025-042,DM,CLIN-2025-042-SITE02-0437,0437,2025-03-13,2025-05-19,SITE02,F,36,YEARS,WHITE,TRT02,Treatment B,USA,TRT02,Treatment B
CLIN-2025-042,DM,CLIN-2025-042-SITE03-0438,0438,2025-03-02,2025-04-24,SITE03,F,56,YEARS,BLACK,TRT01,Treatment A,USA,TRT01,Treatment A
CLIN-2025-042,DM,CLIN-2025-042-SITE04-0439,0439,2025-01-30,2025-03-30,SITE04,F,52,YEARS,WHITE,TRT02,Treatment B,CAN,TRT02,Treatment B
CLIN-2025-042,DM,CLIN-2025-042-SITE05-0440,0440,2025-01-31,2025-03-25,SITE05,F,36,YEARS,WHITE,TRT01,Treatment A,GBR,TRT01,Treatment A
CLIN-2025-042,DM,CLIN-2025-042-SITE01-0441,0441,2025-03-20,2025-05-27,SITE01,M,61,YEARS,WHITE,TRT02,Treatment B,USA,TRT02,Treatment B
CLIN-2025-042,DM,CLIN-2025-042-SITE02-0442,0442,2025-06-30,2025-09-04,SITE02,M,59,YEARS,WHITE,TRT02,Treatment B,USA,TRT02,Treatment B
CLIN-2025-042,DM,CLIN-2025-042-SITE03-0443,0443,2025-04-08,2025-06-16,SITE03,M,49,YEARS,BLACK,TRT01,Treatment A,USA,TRT01,Treatment A
CLIN-2025-042,DM,CLIN-2025-042-SITE04-0444,0444,2025-04-05,2025-05-27,SITE04,M,38,YEARS,WHITE,TRT02,Treatment B,CAN,TRT02,Treatment B
CLIN-2025-042,DM,CLIN-2025-042-SITE05-0445,0445,2025-05-07,2025-07-14,SITE05,F,48,YEARS,WHITE,PBO,Placebo,GBR,PBO,Placebo
CLIN-2025-042,DM,CLIN-2025-042-SITE01-0446,0446,2025-03-14,2025-05-21,SITE01,F,40,YEARS,WHITE,TRT01,Treatment A,USA,TRT01,Treatment A
CLIN-2025-042,DM,CLIN-2025-042-SITE02-0447,0447,2025-02-10,2025-04-16,SITE02,F,52,YEARS,WHITE,TRT02,Treatment B,USA,TRT02,Treatment B
CLIN-2025-042,DM,CLIN-2025-042-SITE03-0448,0448,2025-04-13,2025-06-21,SITE03,F,37,YEARS,WHITE,TRT01,Treatment A,USA,TRT01,Treatment A
CLIN-2025-042,DM,CLIN-2025-042-SITE04-0449,0449,2025-03-12,2025-05-05,SITE04,M,51,YEARS,ASIAN,PBO,Placebo,CAN,PBO,Placebo
CLIN-2025-042,DM,CLIN-2025-042-SITE05-0450,0450,2025-03-27,2025-05-16,SITE05,F,42,YEARS,WHITE,TRT02,Treatment B,GBR,TRT02,Treatment B
CLIN-2025-042,DM,CLIN-2025-042-SITE01-0451,0451,2025-06-08,2025-08-02,SITE01,M,35,YEARS,WHITE,TRT01,Treatment A,USA,TRT01,Treatment A
CLIN-2025-042,DM,CLIN-2025-042-SITE02-0452,0452,2025-05-06,2025-07-03,SITE02,F,68,YEARS,WHITE,TRT01,Treatment A,USA,TRT01,Treatment A
CLIN-2025-042,DM,CLIN-2025-042-SITE03-0453,0453,2025-02-16,2025-04-19,SITE03,F,36,YEARS,BLACK,TRT01,Treatment A,USA,TRT01,Treatment A
CLIN-2025-042,DM,CLIN-2025-042-SITE04-0454,0454,2025-06-11,2025-08-17,SITE04,F,50,YEARS,ASIAN,TRT02,Treatment B,CAN,TRT02,Treatment B
CLIN-2025-042,DM,CLIN-2025-042-SITE05-0455,0455,2025-01-31,2025-03-23,SITE05,F,41,YEARS,BLACK,TRT02,Treatment B,GBR,TRT02,Treatment B
CLIN-2025-042,DM,CLIN-2025-042-SITE01-0456,0456,2025-07-10,2025-09-09,SITE01,M,31,YEARS,WHITE,TRT02,Treatment B,USA,TRT02,Treatment B
CLIN-2025-042,DM,CLIN-2025-042-SITE02-0457,0457,2025-01-16,2025-03-16,SITE02,F,49,YEARS,WHITE,TRT02,Treatment B,USA,TRT02,Treatment B
CLIN-2025-042,DM,CLIN-2025-042-SITE03-0458,0458,2025-02-24,2025-05-04,SITE03,F,28,YEARS,WHITE,TRT01,Treatment A,USA,TRT01,Treatment A
CLIN-2025-042,DM,CLIN-2025-042-SITE04-0459,0459,2025-02-17,2025-04-10,SITE04,M,20,YEARS,BLACK,TRT01,Treatment A,CAN,TRT01,Treatment A
CLIN-2025-042,DM,CLIN-2025-042-SITE05-0460,0460,2025-03-14,2025-05-04,SITE05,F,75,YEARS,ASIAN,TRT02,Treatment B,GBR,TRT02,Treatment B
CLIN-2025-042,DM,CLIN-2025-042-SITE01-0461,0461,2025-04-03,2025-06-10,SITE01,F,50,YEARS,BLACK,TRT01,Treatment A,USA,TRT01,Treatment A
CLIN-2025-042,DM,CLIN-2025-042-SITE02-0462,0462,2025-05-07,2025-07-08,SITE02,F,25,YEARS,WHITE,TRT02,Treatment B,USA,TRT02,Treatment B
CLIN-2025-042,DM,CLIN-2025-042-SITE03-0463,0463,2025-06-27,2025-08-24,SITE03,F,53,YEARS,OTHER,PBO,Placebo,USA,PBO,Placebo
CLIN-2025-042,DM,CLIN-2025-042-SITE04-0464,0464,2025-03-09,2025-05-15,SITE04,M,29,YEARS,BLACK,TRT01,Treatment A,CAN,TRT01,Treatment A
CLIN-2025-042,DM,CLIN-2025-042-SITE05-0465,0465,2025-01-29,2025-03-23,SITE05,M,71,YEARS,WHITE,TRT02,Treatment B,GBR,TRT02,Treatment B
CLIN-2025-042,DM,CLIN-2025-042-SITE01-0466,0466,2025-07-01,2025-08-26,SITE01,M,65,YEARS,ASIAN,TRT02,Treatment B,USA,TRT02,Treatment B
CLIN-2025-042,DM,CLIN-2025-042-SITE02-0467,0467,2025-03-18,2025-05-07,SITE02,M,31,YEARS,WHITE,TRT01,Treatment A,USA,TRT01,Treatment A
CLIN-2025-042,DM,CLIN-2025-042-SITE03-0468,0468,2025-03-13,2025-05-02,SITE03,F,32,YEARS,WHITE,TRT02,Treatment B,USA,TRT02,Treatment B
CLIN-2025-042,DM,CLIN-2025-042-SITE04-0469,0469,2025-02-21,2025-04-30,SITE04,M,58,YEARS,WHITE,PBO,Placebo,CAN,PBO,Placebo
CLIN-2025-042,DM,CLIN-2025-042-SITE05-0470,0470,2025-04-15,2025-06-17,SITE05,M,34,YEARS,BLACK,TRT01,Treatment A,GBR,TRT01,Treatment A
CLIN-2025-042,DM,CLIN-2025-042-SITE01-0471,0471,2025-05-01,2025-06-26,SITE01,M,57,YEARS,BLACK,TRT01,Treatment A,USA,TRT01,Treatment A
CLIN-2025-042,DM,CLIN-2025-042-SITE02-0472,0472,2025-03-13,2025-05-12,SITE02,F,40,YEARS,ASIAN,TRT02,Treatment B,USA,TRT02,Treatment B
CLIN-2025-042,DM,CLIN-2025-042-SITE03-0473,0473,2025-05-01,2025-06-24,SITE03,F,45,YEARS,BLACK,TRT02,Treatment B,USA,TRT02,Treatment B
CLIN-2025-042,DM,CLIN-2025-042-SITE04-0474,0474,2025-05-29,2025-07-28,SITE04,M,18,YEARS,ASIAN,TRT01,Treatment A,CAN,TRT01,Treatment A
CLIN-2025-042,DM,CLIN-2025-042-SITE05-0475,0475,2025-06-29,2025-09-04,SITE05,M,67,YEARS,ASIAN,TRT02,Treatment B,GBR,TRT02,Treatment B
CLIN-2025-042,DM,CLIN-2025-042-SITE01-0476,0476,2025-03-02,2025-05-10,SITE01,M,46,YEARS,ASIAN,TRT02,Treatment B,USA,TRT02,Treatment B
CLIN-2025-042,DM,CLIN-2025-042-SITE02-0477,0477,2025-02-10,2025-04-10,SITE02,F,24,YEARS,ASIAN,PBO,Placebo,USA,PBO,Placebo
CLIN-2025-042,DM,CLIN-2025-042-SITE03-0478,0478,2025-02-15,2025-04-10,SITE03,M,25,YEARS,WHITE,TRT01,Treatment A,USA,TRT01,Treatment A
CLIN-2025-042,DM,CLIN-2025-042-SITE04-0479,0479,2025-04-21,2025-06-26,SITE04,M,60,YEARS,WHITE,PBO,Placebo,CAN,PBO,Placebo
CLIN-2025-042,DM,CLIN-2025-042-SITE05-0480,0480,2025-07-03,2025-09-07,SITE05,M,18,YEARS,WHITE,PBO,Placebo,GBR,PBO,Placebo
CLIN-2025-042,DM,CLIN-2025-042-SITE01-0481,0481,2025-02-12,2025-04-17,SITE01,F,53,YEARS,WHITE,TRT01,Treatment A,USA,TRT01,Treatment A
CLIN-2025-042,DM,CLIN-2025-042-SITE02-0482,0482,2025-04-28,2025-06-18,SITE02,F,31,YEARS,BLACK,TRT01,Treatment A,USA,TRT01,Treatment A
CLIN-2025-042,DM,CLIN-2025-042-SITE03-0483,0483,2025-06-21,2025-08-26,SITE03,M,53,YEARS,WHITE,TRT02,Treatment B,USA,TRT02,Treatment B
CLIN-2025-042,DM,CLIN-2025-042-SITE04-0484,0484,2025-06-25,2025-08-22,SITE04,M,50,YEARS,WHITE,TRT02,Treatment B,CAN,TRT02,Treatment B
CLIN-2025-042,DM,CLIN-2025-042-SITE05-0485,0485,2025-05-21,2025-07-28,SITE05,M,51,YEARS,OTHER,TRT01,Treatment A,GBR,TRT01,Treatment A
CLIN-2025-042,DM,CLIN-2025-042-SITE01-0486,0486,2025-02-02,2025-03-26,SITE01,F,68,YEARS,BLACK,TRT02,Treatment B,USA,TRT02,Treatment B
CLIN-2025-042,DM,CLIN-2025-042-SITE02-0487,0487,2025-06-04,2025-07-24,SITE02,F,29,YEARS,WHITE,TRT02,Treatment B,USA,TRT02,Treatment B
CLIN-2025-042,DM,CLIN-2025-042-SITE03-0488,0488,2025-05-22,2025-07-27,SITE03,M,46,YEARS,WHITE,TRT01,Treatment A,USA,TRT01,Treatment A
CLIN-2025-042,DM,CLIN-2025-042-SITE04-0489,0489,2025-03-04,2025-04-29,SITE04,M,44,YEARS,WHITE,TRT01,Treatment A,CAN,TRT01,Treatment A
CLIN-2025-042,DM,CLIN-2025-042-SITE05-0490,0490,2025-05-18,2025-07-22,SITE05,M,33,YEARS,BLACK,TRT02,Treatment B,GBR,TRT02,Treatment B
CLIN-2025-042,DM,CLIN-2025-042-SITE01-0491,0491,2025-04-10,2025-06-14,SITE01,M,39,YEARS,WHITE,PBO,Placebo,USA,PBO,Placebo
CLIN-2025-042,DM,CLIN-2025-042-SITE02-0492,0492,2025-07-02,2025-09-02,SITE02,M,34,YEARS,WHITE,PBO,Placebo,USA,PBO,Placebo
CLIN-2025-042,DM,CLIN-2025-042-SITE03-0493,0493,2025-06-09,2025-08-16,SITE03,M,24,YEARS,BLACK,TRT02,Treatment B,USA,TRT02,Treatment B
CLIN-2025-042,DM,CLIN-2025-042-SITE04-0494,0494,2025-03-04,2025-05-05,SITE04,M,43,YEARS,WHITE,TRT02,Treatment B,CAN,TRT02,Treatment B
CLIN-2025-042,DM,CLIN-2025-042-SITE05-0495,0495,2025-05-17,2025-07-15,SITE05,M,35,YEARS,WHITE,TRT01,Treatment A,GBR,TRT01,Treatment A
CLIN-2025-042,DM,CLIN-2025-042-SITE01-0496,0496,2025-03-15,2025-05-23,SITE01,M,27,YEARS,WHITE,TRT01,Treatment A,USA,TRT01,Treatment A
CLIN-2025-042,DM,CLIN-2025-042-SITE02-0497,0497,2025-05-24,2025-07-29,SITE02,M,33,YEARS,WHITE,TRT01,Treatment A,USA,TRT01,Treatment A
CLIN-2025-042,DM,CLIN-2025-042-SITE03-0498,0498,2025-03-13,2025-05-06,SITE03,F,48,YEARS,WHITE,TRT02,Treatment B,USA,TRT02,Treatment B
CLIN-2025-042,DM,CLIN-2025-042-SITE04-0499,0499,2025-04-23,2025-06-16,SITE04,M,32,YEARS,BLACK,TRT02,Treatment B,CAN,TRT02,Treatment B
CLIN-2025-042,DM,CLIN-2025-042-SITE05-0500,0500,2025-06-08,2025-08-12,SITE05,F,67,YEARS,WHITE,TRT01,Treatment A,GBR,TRT01,Treatment A
