STUDYID,DOMAIN,USUBJID,LBSEQ,LBTESTCD,LBTEST,LBORRES,LBORRESU,LBSTRESN,LBSTRESU,LBNRIND,VISITNUM,VISIT,LBDTC
CLIN-2025-042,LB,CLIN-2025-042-SITE01-0001,1,ALT,Alanine aminotransferase,18.31,U/L,18.31,U/L,NORMAL,1,Screening,2025-04-10
CLIN-2025-042,LB,CLIN-2025-042-SITE01-0001,2,AST,Aspartate aminotransferase,7.65,U/L,7.65,U/L,LOW,1,Screening,2025-04-10
CLIN-2025-042,LB,CLIN-2025-042-SITE01-0001,3,BILI,Bilirubin total,1.14,mg/dL,1.14,mg/dL,NORMAL,1,Screening,2025-04-10
CLIN-2025-042,LB,CLIN-2025-042-SITE01-0001,4,CREAT,Creatinine,0.78,mg/dL,0.78,mg/dL,NORMAL,1,Screening,2025-04-10
CLIN-2025-042,LB,CLIN-2025-042-SITE01-0001,5,HGB,Hemoglobin,15.94,g/dL,15.94,g/dL,NORMAL,1,Screening,2025-04-10
CLIN-2025-042,LB,CLIN-2025-042-SITE01-0001,6,WBC,White blood cell count,3.55,K/uL,3.55,K/uL,LOW,1,Screening,2025-04-10
CLIN-2025-042,LB,CLIN-2025-042-SITE01-0001,7,PLT,Platelet count,261.14,K/uL,261.14,K/uL,NORMAL,1,Screening,2025-04-10
CLIN-2025-042,LB,CLIN-2025-042-SITE01-0001,8,GLUC,Glucose,86.58,mg/dL,86.58,mg/dL,NORMAL,1,Screening,2025-04-10
CLIN-2025-042,LB,CLIN-2025-042-SITE01-0001,1,ALT,Alanine aminotransferase,45.92,U/L,45.92,U/L,NORMAL,2,Baseline,2025-06-12
CLIN-2025-042,LB,CLIN-2025-042-SITE01-0001,2,AST,Aspartate aminotransferase,25.85,U/L,25.85,U/L,NORMAL,2,Baseline,2025-06-12
CLIN-2025-042,LB,CLIN-2025-042-SITE01-0001,3,BILI,Bilirubin total,1.23,mg/dL,1.23,mg/dL,NORMAL,2,Baseline,2025-06-12
CLIN-2025-042,LB,CLIN-2025-042-SITE01-0001,4,CREAT,Creatinine,1.60,mg/dL,1.6,mg/dL,HIGH,2,Baseline,2025-06-12
CLIN-2025-042,LB,CLIN-2025-042-SITE01-0001,5,HGB,Hemoglobin,20.42,g/dL,20.42,g/dL,HIGH,2,Baseline,2025-06-12
CLIN-2025-042,LB,CLIN-2025-042-SITE01-0001,6,WBC,White blood cell count,7.50,K/uL,7.5,K/uL,NORMAL,2,Baseline,2025-06-12
CLIN-2025-042,LB,CLIN-2025-042-SITE01-0001,7,PLT,Platelet count,105.05,K/uL,105.05,K/uL,LOW,2,Baseline,2025-06-12
CLIN-2025-042,LB,CLIN-2025-042-SITE01-0001,8,GLUC,Glucose,87.73,mg/dL,87.73,mg/dL,NORMAL,2,Baseline,2025-06-12
CLIN-2025-042,LB,CLIN-2025-042-SITE01-0001,1,ALT,Alanine aminotransferase,40.70,U/L,40.7,U/L,NORMAL,3,Week 4,2025-07-10
CLIN-2025-042,LB,CLIN-2025-042-SITE01-0001,2,AST,Aspartate aminotransferase,24.62,U/L,24.62,U/L,NORMAL,3,Week 4,2025-07-10
CLIN-2025-042,LB,CLIN-2025-042-SITE01-0001,3,BILI,Bilirubin total,1.12,mg/dL,1.12,mg/dL,NORMAL,3,Week 4,2025-07-10
CLIN-2025-042,LB,CLIN-2025-042-SITE01-0001,4,CREAT,Creatinine,0.42,mg/dL,0.42,mg/dL,LOW,3,Week 4,2025-07-10
CLIN-2025-042,LB,CLIN-2025-042-SITE01-0001,5,HGB,Hemoglobin,14.97,g/dL,14.97,g/dL,NORMAL,3,Week 4,2025-07-10
CLIN-2025-042,LB,CLIN-2025-042-SITE01-0001,6,WBC,White blood cell count,7.79,K/uL,7.79,K/uL,NORMAL,3,Week 4,2025-07-10
CLIN-2025-042,LB,CLIN-2025-042-SITE01-0001,7,PLT,Platelet count,246.93,K/uL,246.93,K/uL,NORMAL,3,Week 4,2025-07-10
CLIN-2025-042,LB,CLIN-2025-042-SITE01-0001,8,GLUC,Glucose,95.70,mg/dL,95.7,mg/dL,NORMAL,3,Week 4,2025-07-10
CLIN-2025-042,LB,CLIN-2025-042-SITE01-0001,1,ALT,Alanine aminotransferase,114.14,U/L,114.14,U/L,HIGH,4,Week 8,2025-08-07
CLIN-2025-042,LB,CLIN-2025-042-SITE01-0001,2,AST,Aspartate aminotransferase,13.73,U/L,13.73,U/L,NORMAL,4,Week 8,2025-08-07
CLIN-2025-042,LB,CLIN-2025-042-SITE01-0001,3,BILI,Bilirubin total,0.78,mg/dL,0.78,mg/dL,NORMAL,4,Week 8,2025-08-07
CLIN-2025-042,LB,CLIN-2025-042-SITE01-0001,4,CREAT,Creatinine,0.94,mg/dL,0.94,mg/dL,NORMAL,4,Week 8,2025-08-07
CLIN-2025-042,LB,CLIN-2025-042-SITE01-0001,5,HGB,Hemoglobin,16.55,g/dL,16.55,g/dL,NORMAL,4,Week 8,2025-08-07
CLIN-2025-042,LB,CLIN-2025-042-SITE01-0001,6,WBC,White blood cell count,5.84,K/uL,5.84,K/uL,NORMAL,4,Week 8,2025-08-07
CLIN-2025-042,LB,CLIN-2025-042-SITE01-0001,7,PLT,Platelet count,116.85,K/uL,116.85,K/uL,LOW,4,Week 8,2025-08-07
CLIN-2025-042,LB,CLIN-2025-042-SITE01-0001,8,GLUC,Glucose,82.79,mg/dL,82.79,mg/dL,NORMAL,4,Week 8,2025-08-07
CLIN-2025-042,LB,CLIN-2025-042-SITE02-0002,1,ALT,Alanine aminotransferase,61.12,U/L,61.12,U/L,HIGH,1,Screening,2025-04-17
CLIN-2025-042,LB,CLIN-2025-042-SITE02-0002,2,AST,Aspartate aminotransferase,105.21,U/L,105.21,U/L,HIGH,1,Screening,2025-04-17
CLIN-2025-042,LB,CLIN-2025-042-SITE02-0002,3,BILI,Bilirubin total,0.36,mg/dL,0.36,mg/dL,NORMAL,1,Screening,2025-04-17
CLIN-2025-042,LB,CLIN-2025-042-SITE02-0002,4,CREAT,Creatinine,1.12,mg/dL,1.12,mg/dL,NORMAL,1,Screening,2025-04-17
CLIN-2025-042,LB,CLIN-2025-042-SITE02-0002,5,HGB,Hemoglobin,20.30,g/dL,20.3,g/dL,HIGH,1,Screening,2025-04-17
CLIN-2025-042,LB,CLIN-2025-042-SITE02-0002,6,WBC,White blood cell count,6.25,K/uL,6.25,K/uL,NORMAL,1,Screening,2025-04-17
CLIN-2025-042,LB,CLIN-2025-042-SITE02-0002,7,PLT,Platelet count,236.11,K/uL,236.11,K/uL,NORMAL,1,Screening,2025-04-17
CLIN-2025-042,LB,CLIN-2025-042-SITE02-0002,8,GLUC,Glucose,74.77,mg/dL,74.77,mg/dL,NORMAL,1,Screening,2025-04-17
CLIN-2025-042,LB,CLIN-2025-042-SITE02-0002,1,ALT,Alanine aminotransferase,31.37,U/L,31.37,U/L,NORMAL,2,Baseline,2025-06-19
CLIN-2025-042,LB,CLIN-2025-042-SITE02-0002,2,AST,Aspartate aminotransferase,22.42,U/L,22.42,U/L,NORMAL,2,Baseline,2025-06-19
CLIN-2025-042,LB,CLIN-2025-042-SITE02-0002,3,BILI,Bilirubin total,1.01,mg/dL,1.01,mg/dL,NORMAL,2,Baseline,2025-06-19
CLIN-2025-042,LB,CLIN-2025-042-SITE02-0002,4,CREAT,Creatinine,1.30,mg/dL,1.3,mg/dL,NORMAL,2,Baseline,2025-06-19
CLIN-2025-042,LB,CLIN-2025-042-SITE02-0002,5,HGB,Hemoglobin,15.46,g/dL,15.46,g/dL,NORMAL,2,Baseline,2025-06-19
CLIN-2025-042,LB,CLIN-2025-042-SITE02-0002,6,WBC,White blood cell count,10.50,K/uL,10.5,K/uL,NORMAL,2,Baseline,2025-06-19
CLIN-2025-042,LB,CLIN-2025-042-SITE02-0002,7,PLT,Platelet count,444.02,K/uL,444.02,K/uL,HIGH,2,Baseline,2025-06-19
CLIN-2025-042,LB,CLIN-2025-042-SITE02-0002,8,GLUC,Glucose,50.69,mg/dL,50.69,mg/dL,LOW,2,Baseline,2025-06-19
CLIN-2025-042,LB,CLIN-2025-042-SITE02-0002,1,ALT,Alanine aminotransferase,23.43,U/L,23.43,U/L,NORMAL,3,Week 4,2025-07-17
CLIN-2025-042,LB,CLIN-2025-042-SITE02-0002,2,AST,Aspartate aminotransferase,30.10,U/L,30.1,U/L,NORMAL,3,Week 4,2025-07-17
CLIN-2025-042,LB,CLIN-2025-042-SITE02-0002,3,BILI,Bilirubin total,0.65,mg/dL,0.65,mg/dL,NORMAL,3,Week 4,2025-07-17
CLIN-2025-042,LB,CLIN-2025-042-SITE02-0002,4,CREAT,Creatinine,1.25,mg/dL,1.25,mg/dL,NORMAL,3,Week 4,2025-07-17
CLIN-2025-042,LB,CLIN-2025-042-SITE02-0002,5,HGB,Hemoglobin,15.32,g/dL,15.32,g/dL,NORMAL,3,Week 4,2025-07-17
CLIN-2025-042,LB,CLIN-2025-042-SITE02-0002,6,WBC,White blood cell count,13.42,K/uL,13.42,K/uL,HIGH,3,Week 4,2025-07-17
CLIN-2025-042,LB,CLIN-2025-042-SITE02-0002,7,PLT,Platelet count,142.95,K/uL,142.95,K/uL,NORMAL,3,Week 4,2025-07-17
CLIN-2025-042,LB,CLIN-2025-042-SITE02-0002,8,GLUC,Glucose,88.71,mg/dL,88.71,mg/dL,NORMAL,3,Week 4,2025-07-17
CLIN-2025-042,LB,CLIN-2025-042-SITE02-0002,1,ALT,Alanine aminotransferase,33.81,U/L,33.81,U/L,NORMAL,4,Week 8,2025-08-14
CLIN-2025-042,LB,CLIN-2025-042-SITE02-0002,2,AST,Aspartate aminotransferase,21.44,U/L,21.44,U/L,NORMAL,4,Week 8,2025-08-14
CLIN-2025-042,LB,CLIN-2025-042-SITE02-0002,3,BILI,Bilirubin total,0.31,mg/dL,0.31,mg/dL,NORMAL,4,Week 8,2025-08-14
CLIN-2025-042,LB,CLIN-2025-042-SITE02-0002,4,CREAT,Creatinine,0.88,mg/dL,0.88,mg/dL,NORMAL,4,Week 8,2025-08-14
CLIN-2025-042,LB,CLIN-2025-042-SITE02-0002,5,HGB,Hemoglobin,14.83,g/dL,14.83,g/dL,NORMAL,4,Week 8,2025-08-14
CLIN-2025-042,LB,CLIN-2025-042-SITE02-0002,6,WBC,White blood cell count,8.24,K/uL,8.24,K/uL,NORMAL,4,Week 8,2025-08-14
CLIN-2025-042,LB,CLIN-2025-042-SITE02-0002,7,PLT,Platelet count,236.55,K/uL,236.55,K/uL,NORMAL,4,Week 8,2025-08-14
CLIN-2025-042,LB,CLIN-2025-042-SITE02-0002,8,GLUC,Glucose,82.70,mg/dL,82.7,mg/dL,NORMAL,4,Week 8,2025-08-14
CLIN-2025-042,LB,CLIN-2025-042-SITE03-0003,1,ALT,Alanine aminotransferase,24.28,U/L,24.28,U/L,NORMAL,1,Screening,2025-02-14
CLIN-2025-042,LB,CLIN-2025-042-SITE03-0003,2,AST,Aspartate aminotransferase,30.17,U/L,30.17,U/L,NORMAL,1,Screening,2025-02-14
CLIN-2025-042,LB,CLIN-2025-042-SITE03-0003,3,BILI,Bilirubin total,0.84,mg/dL,0.84,mg/dL,NORMAL,1,Screening,2025-02-14
CLIN-2025-042,LB,CLIN-2025-042-SITE03-0003,4,CREAT,Creatinine,0.84,mg/dL,0.84,mg/dL,NORMAL,1,Screening,2025-02-14
CLIN-2025-042,LB,CLIN-2025-042-SITE03-0003,5,HGB,Hemoglobin,14.76,g/dL,14.76,g/dL,NORMAL,1,Screening,2025-02-14
CLIN-2025-042,LB,CLIN-2025-042-SITE03-0003,6,WBC,White blood cell count,13.29,K/uL,13.29,K/uL,HIGH,1,Screening,2025-02-14
CLIN-2025-042,LB,CLIN-2025-042-SITE03-0003,7,PLT,Platelet count,191.29,K/uL,191.29,K/uL,NORMAL,1,Screening,2025-02-14
CLIN-2025-042,LB,CLIN-2025-042-SITE03-0003,8,GLUC,Glucose,83.19,mg/dL,83.19,mg/dL,NORMAL,1,Screening,2025-02-14
CLIN-2025-042,LB,CLIN-2025-042-SITE03-0003,1,ALT,Alanine aminotransferase,60.63,U/L,60.63,U/L,HIGH,2,Baseline,2025-04-18
CLIN-2025-042,LB,CLIN-2025-042-SITE03-0003,2,AST,Aspartate aminotransferase,17.30,U/L,17.3,U/L,NORMAL,2,Baseline,2025-04-18
CLIN-2025-042,LB,CLIN-2025-042-SITE03-0003,3,BILI,Bilirubin total,2.18,mg/dL,2.18,mg/dL,HIGH,2,Baseline,2025-04-18
CLIN-2025-042,LB,CLIN-2025-042-SITE03-0003,4,CREAT,Creatinine,0.53,mg/dL,0.53,mg/dL,LOW,2,Baseline,2025-04-18
CLIN-2025-042,LB,CLIN-2025-042-SITE03-0003,5,HGB,Hemoglobin,14.77,g/dL,14.77,g/dL,NORMAL,2,Baseline,2025-04-18
CLIN-2025-042,LB,CLIN-2025-042-SITE03-0003,6,WBC,White blood cell count,7.91,K/uL,7.91,K/uL,NORMAL,2,Baseline,2025-04-18
CLIN-2025-042,LB,CLIN-2025-042-SITE03-0003,7,PLT,Platelet count,381.21,K/uL,381.21,K/uL,NORMAL,2,Baseline,2025-04-18
CLIN-2025-042,LB,CLIN-2025-042-SITE03-0003,8,GLUC,Glucose,81.71,mg/dL,81.71,mg/dL,NORMAL,2,Baseline,2025-04-18
CLIN-2025-042,LB,CLIN-2025-042-SITE03-0003,1,ALT,Alanine aminotransferase,49.11,U/L,49.11,U/L,NORMAL,3,Week 4,2025-05-16
CLIN-2025-042,LB,CLIN-2025-042-SITE03-0003,2,AST,Aspartate aminotransferase,6.79,U/L,6.79,U/L,LOW,3,Week 4,2025-05-16
CLIN-2025-042,LB,CLIN-2025-042-SITE03-0003,3,BILI,Bilirubin total,0.10,mg/dL,0.1,mg/dL,NORMAL,3,Week 4,2025-05-16
CLIN-2025-042,LB,CLIN-2025-042-SITE03-0003,4,CREAT,Creatinine,1.10,mg/dL,1.1,mg/dL,NORMAL,3,Week 4,2025-05-16
CLIN-2025-042,LB,CLIN-2025-042-SITE03-0003,5,HGB,Hemoglobin,15.74,g/dL,15.74,g/dL,NORMAL,3,Week 4,2025-05-16
CLIN-2025-042,LB,CLIN-2025-042-SITE03-0003,6,WBC,White blood cell count,9.93,K/uL,9.93,K/uL,NORMAL,3,Week 4,2025-05-16
CLIN-2025-042,LB,CLIN-2025-042-SITE03-0003,7,PLT,Platelet count,453.09,K/uL,453.09,K/uL,HIGH,3,Week 4,2025-05-16
CLIN-2025-042,LB,CLIN-2025-042-SITE03-0003,8,GLUC,Glucose,80.45,mg/dL,80.45,mg/dL,NORMAL,3,Week 4,2025-05-16
CLIN-2025-042,LB,CLIN-2025-042-SITE03-0003,1,ALT,Alanine aminotransferase,10.58,U/L,10.58,U/L,NORMAL,4,Week 8,2025-06-13
CLIN-2025-042,LB,CLIN-2025-042-SITE03-0003,2,AST,Aspartate aminotransferase,6.31,U/L,6.31,U/L,LOW,4,Week 8,2025-06-13
CLIN-2025-042,LB,CLIN-2025-042-SITE03-0003,3,BILI,Bilirubin total,0.55,mg/dL,0.55,mg/dL,NORMAL,4,Week 8,2025-06-13
CLIN-2025-042,LB,CLIN-2025-042-SITE03-0003,4,CREAT,Creatinine,0.80,mg/dL,0.8,mg/dL,NORMAL,4,Week 8,2025-06-13
CLIN-2025-042,LB,CLIN-2025-042-SITE03-0003,5,HGB,Hemoglobin,16.54,g/dL,16.54,g/dL,NORMAL,4,Week 8,2025-06-13
CLIN-2025-042,LB,CLIN-2025-042-SITE03-0003,6,WBC,White blood cell count,9.72,K/uL,9.72,K/uL,NORMAL,4,Week 8,2025-06-13
CLIN-2025-042,LB,CLIN-2025-042-SITE03-0003,7,PLT,Platelet count,296.57,K/uL,296.57,K/uL,NORMAL,4,Week 8,2025-06-13
CLIN-2025-042,LB,CLIN-2025-042-SITE03-0003,8,GLUC,Glucose,89.94,mg/dL,89.94,mg/dL,NORMAL,4,Week 8,2025-06-13
CLIN-2025-042,LB,CLIN-2025-042-SITE04-0004,1,ALT,Alanine aminotransferase,42.41,U/L,42.41,U/L,NORMAL,1,Screening,2025-03-07
CLIN-2025-042,LB,CLIN-2025-042-SITE04-0004,2,AST,Aspartate aminotransferase,17.96,U/L,17.96,U/L,NORMAL,1,Screening,2025-03-07
CLIN-2025-042,LB,CLIN-2025-042-SITE04-0004,3,BILI,Bilirubin total,0.10,mg/dL,0.1,mg/dL,LOW,1,Screening,2025-03-07
CLIN-2025-042,LB,CLIN-2025-042-SITE04-0004,4,CREAT,Creatinine,1.94,mg/dL,1.94,mg/dL,HIGH,1,Screening,2025-03-07
CLIN-2025-042,LB,CLIN-2025-042-SITE04-0004,5,HGB,Hemoglobin,15.95,g/dL,15.95,g/dL,NORMAL,1,Screening,2025-03-07
CLIN-2025-042,LB,CLIN-2025-042-SITE04-0004,6,WBC,White blood cell count,10.05,K/uL,10.05,K/uL,NORMAL,1,Screening,2025-03-07
CLIN-2025-042,LB,CLIN-2025-042-SITE04-0004,7,PLT,Platelet count,274.07,K/uL,274.07,K/uL,NORMAL,1,Screening,2025-03-07
CLIN-2025-042,LB,CLIN-2025-042-SITE04-0004,8,GLUC,Glucose,74.04,mg/dL,74.04,mg/dL,NORMAL,1,Screening,2025-03-07
CLIN-2025-042,LB,CLIN-2025-042-SITE04-0004,1,ALT,Alanine aminotransferase,52.04,U/L,52.04,U/L,NORMAL,2,Baseline,2025-05-09
CLIN-2025-042,LB,CLIN-2025-042-SITE04-0004,2,AST,Aspartate aminotransferase,29.38,U/L,29.38,U/L,NORMAL,2,Baseline,2025-05-09
CLIN-2025-042,LB,CLIN-2025-042-SITE04-0004,3,BILI,Bilirubin total,0.52,mg/dL,0.52,mg/dL,NORMAL,2,Baseline,2025-05-09
CLIN-2025-042,LB,CLIN-2025-042-SITE04-0004,4,CREAT,Creatinine,1.09,mg/dL,1.09,mg/dL,NORMAL,2,Baseline,2025-05-09
CLIN-2025-042,LB,CLIN-2025-042-SITE04-0004,5,HGB,Hemoglobin,15.81,g/dL,15.81,g/dL,NORMAL,2,Baseline,2025-05-09
CLIN-2025-042,LB,CLIN-2025-042-SITE04-0004,6,WBC,White blood cell count,5.77,K/uL,5.77,K/uL,NORMAL,2,Baseline,2025-05-09
CLIN-2025-042,LB,CLIN-2025-042-SITE04-0004,7,PLT,Platelet count,242.65,K/uL,242.65,K/uL,NORMAL,2,Baseline,2025-05-09
CLIN-2025-042,LB,CLIN-2025-042-SITE04-0004,8,GLUC,Glucose,78.63,mg/dL,78.63,mg/dL,NORMAL,2,Baseline,2025-05-09
CLIN-2025-042,LB,CLIN-2025-042-SITE04-0004,1,ALT,Alanine aminotransferase,48.90,U/L,48.9,U/L,NORMAL,3,Week 4,2025-06-06
CLIN-2025-042,LB,CLIN-2025-042-SITE04-0004,2,AST,Aspartate aminotransferase,28.97,U/L,28.97,U/L,NORMAL,3,Week 4,2025-06-06
CLIN-2025-042,LB,CLIN-2025-042-SITE04-0004,3,BILI,Bilirubin total,0.95,mg/dL,0.95,mg/dL,NORMAL,3,Week 4,2025-06-06
CLIN-2025-042,LB,CLIN-2025-042-SITE04-0004,4,CREAT,Creatinine,0.78,mg/dL,0.78,mg/dL,NORMAL,3,Week 4,2025-06-06
CLIN-2025-042,LB,CLIN-2025-042-SITE04-0004,5,HGB,Hemoglobin,15.29,g/dL,15.29,g/dL,NORMAL,3,Week 4,2025-06-06
CLIN-2025-042,LB,CLIN-2025-042-SITE04-0004,6,WBC,White blood cell count,5.71,K/uL,5.71,K/uL,NORMAL,3,Week 4,2025-06-06
CLIN-2025-042,LB,CLIN-2025-042-SITE04-0004,7,PLT,Platelet count,309.65,K/uL,309.65,K/uL,NORMAL,3,Week 4,2025-06-06
CLIN-2025-042,LB,CLIN-2025-042-SITE04-0004,8,GLUC,Glucose,65.55,mg/dL,65.55,mg/dL,NORMAL,3,Week 4,2025-06-06
CLIN-2025-042,LB,CLIN-2025-042-SITE04-0004,1,ALT,Alanine aminotransferase,5.13,U/L,5.13,U/L,LOW,4,Week 8,2025-07-04
CLIN-2025-042,LB,CLIN-2025-042-SITE04-0004,2,AST,Aspartate aminotransferase,19.43,U/L,19.43,U/L,NORMAL,4,Week 8,2025-07-04
CLIN-2025-042,LB,CLIN-2025-042-SITE04-0004,3,BILI,Bilirubin total,0.54,mg/dL,0.54,mg/dL,NORMAL,4,Week 8,2025-07-04
CLIN-2025-042,LB,CLIN-2025-042-SITE04-0004,4,CREAT,Creatinine,0.51,mg/dL,0.51,mg/dL,LOW,4,Week 8,2025-07-04
CLIN-2025-042,LB,CLIN-2025-042-SITE04-0004,5,HGB,Hemoglobin,14.83,g/dL,14.83,g/dL,NORMAL,4,Week 8,2025-07-04
CLIN-2025-042,LB,CLIN-2025-042-SITE04-0004,6,WBC,White blood cell count,11.09,K/uL,11.09,K/uL,NORMAL,4,Week 8,2025-07-04
CLIN-2025-042,LB,CLIN-2025-042-SITE04-0004,7,PLT,Platelet count,198.23,K/uL,198.23,K/uL,NORMAL,4,Week 8,2025-07-04
CLIN-2025-042,LB,CLIN-2025-042-SITE04-0004,8,GLUC,Glucose,76.78,mg/dL,76.78,mg/dL,NORMAL,4,Week 8,2025-07-04
CLIN-2025-042,LB,CLIN-2025-042-SITE05-0005,1,ALT,Alanine aminotransferase,32.06,U/L,32.06,U/L,NORMAL,1,Screening,2025-02-27
CLIN-2025-042,LB,CLIN-2025-042-SITE05-0005,2,AST,Aspartate aminotransferase,21.67,U/L,21.67,U/L,NORMAL,1,Screening,2025-02-27
CLIN-2025-042,LB,CLIN-2025-042-SITE05-0005,3,BILI,Bilirubin total,0.45,mg/dL,0.45,mg/dL,NORMAL,1,Screening,2025-02-27
CLIN-2025-042,LB,CLIN-2025-042-SITE05-0005,4,CREAT,Creatinine,0.94,mg/dL,0.94,mg/dL,NORMAL,1,Screening,2025-02-27
CLIN-2025-042,LB,CLIN-2025-042-SITE05-0005,5,HGB,Hemoglobin,16.27,g/dL,16.27,g/dL,NORMAL,1,Screening,2025-02-27
CLIN-2025-042,LB,CLIN-2025-042-SITE05-0005,6,WBC,White blood cell count,7.37,K/uL,7.37,K/uL,NORMAL,1,Screening,2025-02-27
CLIN-2025-042,LB,CLIN-2025-042-SITE05-0005,7,PLT,Platelet count,410.07,K/uL,410.07,K/uL,HIGH,1,Screening,2025-02-27
CLIN-2025-042,LB,CLIN-2025-042-SITE05-0005,8,GLUC,Glucose,57.59,mg/dL,57.59,mg/dL,LOW,1,Screening,2025-02-27
CLIN-2025-042,LB,CLIN-2025-042-SITE05-0005,1,ALT,Alanine aminotransferase,59.72,U/L,59.72,U/L,HIGH,2,Baseline,2025-05-01
CLIN-2025-042,LB,CLIN-2025-042-SITE05-0005,2,AST,Aspartate aminotransferase,15.38,U/L,15.38,U/L,NORMAL,2,Baseline,2025-05-01
CLIN-2025-042,LB,CLIN-2025-042-SITE05-0005,3,BILI,Bilirubin total,0.69,mg/dL,0.69,mg/dL,NORMAL,2,Baseline,2025-05-01
CLIN-2025-042,LB,CLIN-2025-042-SITE05-0005,4,CREAT,Creatinine,2.38,mg/dL,2.38,mg/dL,HIGH,2,Baseline,2025-05-01
CLIN-2025-042,LB,CLIN-2025-042-SITE05-0005,5,HGB,Hemoglobin,14.59,g/dL,14.59,g/dL,NORMAL,2,Baseline,2025-05-01
CLIN-2025-042,LB,CLIN-2025-042-SITE05-0005,6,WBC,White blood cell count,6.58,K/uL,6.58,K/uL,NORMAL,2,Baseline,2025-05-01
CLIN-2025-042,LB,CLIN-2025-042-SITE05-0005,7,PLT,Platelet count,245.33,K/uL,245.33,K/uL,NORMAL,2,Baseline,2025-05-01
CLIN-2025-042,LB,CLIN-2025-042-SITE05-0005,8,GLUC,Glucose,89.16,mg/dL,89.16,mg/dL,NORMAL,2,Baseline,2025-05-01
CLIN-2025-042,LB,CLIN-2025-042-SITE05-0005,1,ALT,Alanine aminotransferase,35.10,U/L,35.1,U/L,NORMAL,3,Week 4,2025-05-29
CLIN-2025-042,LB,CLIN-2025-042-SITE05-0005,2,AST,Aspartate aminotransferase,27.57,U/L,27.57,U/L,NORMAL,3,Week 4,2025-05-29
CLIN-2025-042,LB,CLIN-2025-042-SITE05-0005,3,BILI,Bilirubin total,1.43,mg/dL,1.43,mg/dL,HIGH,3,Week 4,2025-05-29
CLIN-2025-042,LB,CLIN-2025-042-SITE05-0005,4,CREAT,Creatinine,0.40,mg/dL,0.4,mg/dL,LOW,3,Week 4,2025-05-29
CLIN-2025-042,LB,CLIN-2025-042-SITE05-0005,5,HGB,Hemoglobin,10.34,g/dL,10.34,g/dL,LOW,3,Week 4,2025-05-29
CLIN-2025-042,LB,CLIN-2025-042-SITE05-0005,6,WBC,White blood cell count,8.12,K/uL,8.12,K/uL,NORMAL,3,Week 4,2025-05-29
CLIN-2025-042,LB,CLIN-2025-042-SITE05-0005,7,PLT,Platelet count,66.82,K/uL,66.82,K/uL,LOW,3,Week 4,2025-05-29
CLIN-2025-042,LB,CLIN-2025-042-SITE05-0005,8,GLUC,Glucose,46.83,mg/dL,46.83,mg/dL,LOW,3,Week 4,2025-05-29
CLIN-2025-042,LB,CLIN-2025-042-SITE05-0005,1,ALT,Alanine aminotransferase,30.77,U/L,30.77,U/L,NORMAL,4,Week 8,2025-06-26
CLIN-2025-042,LB,CLIN-2025-042-SITE05-0005,2,AST,Aspartate aminotransferase,54.63,U/L,54.63,U/L,HIGH,4,Week 8,2025-06-26
CLIN-2025-042,LB,CLIN-2025-042-SITE05-0005,3,BILI,Bilirubin total,0.70,mg/dL,0.7,mg/dL,NORMAL,4,Week 8,2025-06-26
CLIN-2025-042,LB,CLIN-2025-042-SITE05-0005,4,CREAT,Creatinine,0.97,mg/dL,0.97,mg/dL,NORMAL,4,Week 8,2025-06-26
CLIN-2025-042,LB,CLIN-2025-042-SITE05-0005,5,HGB,Hemoglobin,14.68,g/dL,14.68,g/dL,NORMAL,4,Week 8,2025-06-26
CLIN-2025-042,LB,CLIN-2025-042-SITE05-0005,6,WBC,White blood cell count,15.14,K/uL,15.14,K/uL,HIGH,4,Week 8,2025-06-26
CLIN-2025-042,LB,CLIN-2025-042-SITE05-0005,7,PLT,Platelet count,369.78,K/uL,369.78,K/uL,NORMAL,4,Week 8,2025-06-26
CLIN-2025-042,LB,CLIN-2025-042-SITE05-0005,8,GLUC,Glucose,85.05,mg/dL,85.05,mg/dL,NORMAL,4,Week 8,2025-06-26
CLIN-2025-042,LB,CLIN-2025-042-SITE01-0006,1,ALT,Alanine aminotransferase,17.31,U/L,17.31,U/L,NORMAL,1,Screening,2025-05-19
CLIN-2025-042,LB,CLIN-2025-042-SITE01-0006,2,AST,Aspartate aminotransferase,28.17,U/L,28.17,U/L,NORMAL,1,Screening,2025-05-19
CLIN-2025-042,LB,CLIN-2025-042-SITE01-0006,3,BILI,Bilirubin total,0.37,mg/dL,0.37,mg/dL,NORMAL,1,Screening,2025-05-19
CLIN-2025-042,LB,CLIN-2025-042-SITE01-0006,4,CREAT,Creatinine,1.03,mg/dL,1.03,mg/dL,NORMAL,1,Screening,2025-05-19
CLIN-2025-042,LB,CLIN-2025-042-SITE01-0006,5,HGB,Hemoglobin,20.23,g/dL,20.23,g/dL,HIGH,1,Screening,2025-05-19
CLIN-2025-042,LB,CLIN-2025-042-SITE01-0006,6,WBC,White blood cell count,4.27,K/uL,4.27,K/uL,NORMAL,1,Screening,2025-05-19
CLIN-2025-042,LB,CLIN-2025-042-SITE01-0006,7,PLT,Platelet count,273.19,K/uL,273.19,K/uL,NORMAL,1,Screening,2025-05-19
CLIN-2025-042,LB,CLIN-2025-042-SITE01-0006,8,GLUC,Glucose,109.92,mg/dL,109.92,mg/dL,HIGH,1,Screening,2025-05-19
CLIN-2025-042,LB,CLIN-2025-042-SITE01-0006,1,ALT,Alanine aminotransferase,24.50,U/L,24.5,U/L,NORMAL,2,Baseline,2025-07-21
CLIN-2025-042,LB,CLIN-2025-042-SITE01-0006,2,AST,Aspartate aminotransferase,58.49,U/L,58.49,U/L,HIGH,2,Baseline,2025-07-21
CLIN-2025-042,LB,CLIN-2025-042-SITE01-0006,3,BILI,Bilirubin total,0.34,mg/dL,0.34,mg/dL,NORMAL,2,Baseline,2025-07-21
CLIN-2025-042,LB,CLIN-2025-042-SITE01-0006,4,CREAT,Creatinine,1.22,mg/dL,1.22,mg/dL,NORMAL,2,Baseline,2025-07-21
CLIN-2025-042,LB,CLIN-2025-042-SITE01-0006,5,HGB,Hemoglobin,15.07,g/dL,15.07,g/dL,NORMAL,2,Baseline,2025-07-21
CLIN-2025-042,LB,CLIN-2025-042-SITE01-0006,6,WBC,White blood cell count,7.02,K/uL,7.02,K/uL,NORMAL,2,Baseline,2025-07-21
CLIN-2025-042,LB,CLIN-2025-042-SITE01-0006,7,PLT,Platelet count,286.66,K/uL,286.66,K/uL,NORMAL,2,Baseline,2025-07-21
CLIN-2025-042,LB,CLIN-2025-042-SITE01-0006,8,GLUC,Glucose,81.90,mg/dL,81.9,mg/dL,NORMAL,2,Baseline,2025-07-21
CLIN-2025-042,LB,CLIN-2025-042-SITE01-0006,1,ALT,Alanine aminotransferase,17.31,U/L,17.31,U/L,NORMAL,3,Week 4,2025-08-18
CLIN-2025-042,LB,CLIN-2025-042-SITE01-0006,2,AST,Aspartate aminotransferase,56.26,U/L,56.26,U/L,HIGH,3,Week 4,2025-08-18
CLIN-2025-042,LB,CLIN-2025-042-SITE01-0006,3,BILI,Bilirubin total,0.10,mg/dL,0.1,mg/dL,LOW,3,Week 4,2025-08-18
CLIN-2025-042,LB,CLIN-2025-042-SITE01-0006,4,CREAT,Creatinine,1.16,mg/dL,1.16,mg/dL,NORMAL,3,Week 4,2025-08-18
CLIN-2025-042,LB,CLIN-2025-042-SITE01-0006,5,HGB,Hemoglobin,15.09,g/dL,15.09,g/dL,NORMAL,3,Week 4,2025-08-18
CLIN-2025-042,LB,CLIN-2025-042-SITE01-0006,6,WBC,White blood cell count,5.39,K/uL,5.39,K/uL,NORMAL,3,Week 4,2025-08-18
CLIN-2025-042,LB,CLIN-2025-042-SITE01-0006,7,PLT,Platelet count,244.85,K/uL,244.85,K/uL,NORMAL,3,Week 4,2025-08-18
CLIN-2025-042,LB,CLIN-2025-042-SITE01-0006,8,GLUC,Glucose,75.19,mg/dL,75.19,mg/dL,NORMAL,3,Week 4,2025-08-18
CLIN-2025-042,LB,CLIN-2025-042-SITE01-0006,1,ALT,Alanine aminotransferase,22.94,U/L,22.94,U/L,NORMAL,4,Week 8,2025-09-15
CLIN-2025-042,LB,CLIN-2025-042-SITE01-0006,2,AST,Aspartate aminotransferase,18.86,U/L,18.86,U/L,NORMAL,4,Week 8,2025-09-15
CLIN-2025-042,LB,CLIN-2025-042-SITE01-0006,3,BILI,Bilirubin total,0.69,mg/dL,0.69,mg/dL,NORMAL,4,Week 8,2025-09-15
CLIN-2025-042,LB,CLIN-2025-042-SITE01-0006,4,CREAT,Creatinine,1.01,mg/dL,1.01,mg/dL,NORMAL,4,Week 8,2025-09-15
CLIN-2025-042,LB,CLIN-2025-042-SITE01-0006,5,HGB,Hemoglobin,16.55,g/dL,16.55,g/dL,NORMAL,4,Week 8,2025-09-15
CLIN-2025-042,LB,CLIN-2025-042-SITE01-0006,6,WBC,White blood cell count,6.47,K/uL,6.47,K/uL,NORMAL,4,Week 8,2025-09-15
CLIN-2025-042,LB,CLIN-2025-042-SITE01-0006,7,PLT,Platelet count,375.08,K/uL,375.08,K/uL,NORMAL,4,Week 8,2025-09-15
CLIN-2025-042,LB,CLIN-2025-042-SITE01-0006,8,GLUC,Glucose,83.70,mg/dL,83.7,mg/dL,NORMAL,4,Week 8,2025-09-15
CLIN-2025-042,LB,CLIN-2025-042-SITE02-0007,1,ALT,Alanine aminotransferase,23.09,U/L,23.09,U/L,NORMAL,1,Screening,2025-04-28
CLIN-2025-042,LB,CLIN-2025-042-SITE02-0007,2,AST,Aspartate aminotransferase,42.31,U/L,42.31,U/L,HIGH,1,Screening,2025-04-28
CLIN-2025-042,LB,CLIN-2025-042-SITE02-0007,3,BILI,Bilirubin total,0.42,mg/dL,0.42,mg/dL,NORMAL,1,Screening,2025-04-28
CLIN-2025-042,LB,CLIN-2025-042-SITE02-0007,4,CREAT,Creatinine,0.52,mg/dL,0.52,mg/dL,LOW,1,Screening,2025-04-28
CLIN-2025-042,LB,CLIN-2025-042-SITE02-0007,5,HGB,Hemoglobin,15.50,g/dL,15.5,g/dL,NORMAL,1,Screening,2025-04-28
CLIN-2025-042,LB,CLIN-2025-042-SITE02-0007,6,WBC,White blood cell count,9.25,K/uL,9.25,K/uL,NORMAL,1,Screening,2025-04-28
CLIN-2025-042,LB,CLIN-2025-042-SITE02-0007,7,PLT,Platelet count,333.57,K/uL,333.57,K/uL,NORMAL,1,Screening,2025-04-28
CLIN-2025-042,LB,CLIN-2025-042-SITE02-0007,8,GLUC,Glucose,31.23,mg/dL,31.23,mg/dL,LOW,1,Screening,2025-04-28
CLIN-2025-042,LB,CLIN-2025-042-SITE02-0007,1,ALT,Alanine aminotransferase,0.10,U/L,0.1,U/L,NORMAL,2,Baseline,2025-06-30
CLIN-2025-042,LB,CLIN-2025-042-SITE02-0007,2,AST,Aspartate aminotransferase,46.06,U/L,46.06,U/L,HIGH,2,Baseline,2025-06-30
CLIN-2025-042,LB,CLIN-2025-042-SITE02-0007,3,BILI,Bilirubin total,1.15,mg/dL,1.15,mg/dL,NORMAL,2,Baseline,2025-06-30
CLIN-2025-042,LB,CLIN-2025-042-SITE02-0007,4,CREAT,Creatinine,1.08,mg/dL,1.08,mg/dL,NORMAL,2,Baseline,2025-06-30
CLIN-2025-042,LB,CLIN-2025-042-SITE02-0007,5,HGB,Hemoglobin,15.04,g/dL,15.04,g/dL,NORMAL,2,Baseline,2025-06-30
CLIN-2025-042,LB,CLIN-2025-042-SITE02-0007,6,WBC,White blood cell count,5.45,K/uL,5.45,K/uL,NORMAL,2,Baseline,2025-06-30
CLIN-2025-042,LB,CLIN-2025-042-SITE02-0007,7,PLT,Platelet count,221.08,K/uL,221.08,K/uL,NORMAL,2,Baseline,2025-06-30
CLIN-2025-042,LB,CLIN-2025-042-SITE02-0007,8,GLUC,Glucose,80.18,mg/dL,80.18,mg/dL,NORMAL,2,Baseline,2025-06-30
CLIN-2025-042,LB,CLIN-2025-042-SITE02-0007,1,ALT,Alanine aminotransferase,4.72,U/L,4.72,U/L,LOW,3,Week 4,2025-07-28
CLIN-2025-042,LB,CLIN-2025-042-SITE02-0007,2,AST,Aspartate aminotransferase,15.86,U/L,15.86,U/L,NORMAL,3,Week 4,2025-07-28
CLIN-2025-042,LB,CLIN-2025-042-SITE02-0007,3,BILI,Bilirubin total,0.86,mg/dL,0.86,mg/dL,NORMAL,3,Week 4,2025-07-28
CLIN-2025-042,LB,CLIN-2025-042-SITE02-0007,4,CREAT,Creatinine,1.02,mg/dL,1.02,mg/dL,NORMAL,3,Week 4,2025-07-28
CLIN-2025-042,LB,CLIN-2025-042-SITE02-0007,5,HGB,Hemoglobin,15.50,g/dL,15.5,g/dL,NORMAL,3,Week 4,2025-07-28
CLIN-2025-042,LB,CLIN-2025-042-SITE02-0007,6,WBC,White blood cell count,8.00,K/uL,8.0,K/uL,NORMAL,3,Week 4,2025-07-28
CLIN-2025-042,LB,CLIN-2025-042-SITE02-0007,7,PLT,Platelet count,264.15,K/uL,264.15,K/uL,NORMAL,3,Week 4,2025-07-28
CLIN-2025-042,LB,CLIN-2025-042-SITE02-0007,8,GLUC,Glucose,92.13,mg/dL,92.13,mg/dL,NORMAL,3,Week 4,2025-07-28
CLIN-2025-042,LB,CLIN-2025-042-SITE02-0007,1,ALT,Alanine aminotransferase,4.76,U/L,4.76,U/L,LOW,4,Week 8,2025-08-25
CLIN-2025-042,LB,CLIN-2025-042-SITE02-0007,2,AST,Aspartate aminotransferase,25.19,U/L,25.19,U/L,NORMAL,4,Week 8,2025-08-25
CLIN-2025-042,LB,CLIN-2025-042-SITE02-0007,3,BILI,Bilirubin total,0.84,mg/dL,0.84,mg/dL,NORMAL,4,Week 8,2025-08-25
CLIN-2025-042,LB,CLIN-2025-042-SITE02-0007,4,CREAT,Creatinine,0.24,mg/dL,0.24,mg/dL,LOW,4,Week 8,2025-08-25
CLIN-2025-042,LB,CLIN-2025-042-SITE02-0007,5,HGB,Hemoglobin,16.65,g/dL,16.65,g/dL,NORMAL,4,Week 8,2025-08-25
CLIN-2025-042,LB,CLIN-2025-042-SITE02-0007,6,WBC,White blood cell count,2.57,K/uL,2.57,K/uL,LOW,4,Week 8,2025-08-25
CLIN-2025-042,LB,CLIN-2025-042-SITE02-0007,7,PLT,Platelet count,234.58,K/uL,234.58,K/uL,NORMAL,4,Week 8,2025-08-25
CLIN-2025-042,LB,CLIN-2025-042-SITE02-0007,8,GLUC,Glucose,77.72,mg/dL,76.5209739585922,mg/dL,NORMAL,4,Week 8,2025-08-25
CLIN-2025-042,LB,CLIN-2025-042-SITE03-0008,1,ALT,Alanine aminotransferase,36.94,U/L,36.94,U/L,NORMAL,1,Screening,2025-05-21
CLIN-2025-042,LB,CLIN-2025-042-SITE03-0008,2,AST,Aspartate aminotransferase,30.87,U/L,30.87,U/L,NORMAL,1,Screening,2025-05-21
CLIN-2025-042,LB,CLIN-2025-042-SITE03-0008,3,BILI,Bilirubin total,1.08,mg/dL,1.08,mg/dL,NORMAL,1,Screening,2025-05-21
CLIN-2025-042,LB,CLIN-2025-042-SITE03-0008,4,CREAT,Creatinine,0.99,mg/dL,0.99,mg/dL,NORMAL,1,Screening,2025-05-21
CLIN-2025-042,LB,CLIN-2025-042-SITE03-0008,5,HGB,Hemoglobin,15.23,g/dL,15.23,g/dL,NORMAL,1,Screening,2025-05-21
CLIN-2025-042,LB,CLIN-2025-042-SITE03-0008,6,WBC,White blood cell count,5.22,K/uL,5.22,K/uL,NORMAL,1,Screening,2025-05-21
CLIN-2025-042,LB,CLIN-2025-042-SITE03-0008,7,PLT,Platelet count,254.84,K/uL,254.84,K/uL,NORMAL,1,Screening,2025-05-21
CLIN-2025-042,LB,CLIN-2025-042-SITE03-0008,8,GLUC,Glucose,97.62,mg/dL,97.62,mg/dL,NORMAL,1,Screening,2025-05-21
CLIN-2025-042,LB,CLIN-2025-042-SITE03-0008,1,ALT,Alanine aminotransferase,33.95,U/L,33.95,U/L,NORMAL,2,Baseline,2025-07-23
CLIN-2025-042,LB,CLIN-2025-042-SITE03-0008,2,AST,Aspartate aminotransferase,31.57,U/L,31.57,U/L,NORMAL,2,Baseline,2025-07-23
CLIN-2025-042,LB,CLIN-2025-042-SITE03-0008,3,BILI,Bilirubin total,0.71,mg/dL,0.71,mg/dL,NORMAL,2,Baseline,2025-07-23
CLIN-2025-042,LB,CLIN-2025-042-SITE03-0008,4,CREAT,Creatinine,1.05,mg/dL,1.05,mg/dL,NORMAL,2,Baseline,2025-07-23
CLIN-2025-042,LB,CLIN-2025-042-SITE03-0008,5,HGB,Hemoglobin,17.77,g/dL,17.77,g/dL,NORMAL,2,Baseline,2025-07-23
CLIN-2025-042,LB,CLIN-2025-042-SITE03-0008,6,WBC,White blood cell count,3.89,K/uL,3.89,K/uL,LOW,2,Baseline,2025-07-23
CLIN-2025-042,LB,CLIN-2025-042-SITE03-0008,7,PLT,Platelet count,372.66,K/uL,372.66,K/uL,NORMAL,2,Baseline,2025-07-23
CLIN-2025-042,LB,CLIN-2025-042-SITE03-0008,8,GLUC,Glucose,82.23,mg/dL,82.23,mg/dL,NORMAL,2,Baseline,2025-07-23
CLIN-2025-042,LB,CLIN-2025-042-SITE03-0008,1,ALT,Alanine aminotransferase,4.98,U/L,4.98,U/L,LOW,3,Week 4,2025-08-20
CLIN-2025-042,LB,CLIN-2025-042-SITE03-0008,2,AST,Aspartate aminotransferase,36.48,U/L,36.48,U/L,NORMAL,3,Week 4,2025-08-20
CLIN-2025-042,LB,CLIN-2025-042-SITE03-0008,3,BILI,Bilirubin total,1.80,mg/dL,1.8,mg/dL,HIGH,3,Week 4,2025-08-20
CLIN-2025-042,LB,CLIN-2025-042-SITE03-0008,4,CREAT,Creatinine,0.42,mg/dL,0.42,mg/dL,LOW,3,Week 4,2025-08-20
CLIN-2025-042,LB,CLIN-2025-042-SITE03-0008,5,HGB,Hemoglobin,14.85,g/dL,14.85,g/dL,NORMAL,3,Week 4,2025-08-20
CLIN-2025-042,LB,CLIN-2025-042-SITE03-0008,6,WBC,White blood cell count,7.65,K/uL,7.65,K/uL,NORMAL,3,Week 4,2025-08-20
CLIN-2025-042,LB,CLIN-2025-042-SITE03-0008,7,PLT,Platelet count,274.05,K/uL,274.05,K/uL,NORMAL,3,Week 4,2025-08-20
CLIN-2025-042,LB,CLIN-2025-042-SITE03-0008,8,GLUC,Glucose,84.79,mg/dL,84.79,mg/dL,NORMAL,3,Week 4,2025-08-20
CLIN-2025-042,LB,CLIN-2025-042-SITE03-0008,1,ALT,Alanine aminotransferase,56.29,U/L,56.29,U/L,NORMAL,4,Week 8,2025-09-17
CLIN-2025-042,LB,CLIN-2025-042-SITE03-0008,2,AST,Aspartate aminotransferase,28.55,U/L,28.55,U/L,NORMAL,4,Week 8,2025-09-17
CLIN-2025-042,LB,CLIN-2025-042-SITE03-0008,3,BILI,Bilirubin total,0.10,mg/dL,0.1,mg/dL,LOW,4,Week 8,2025-09-17
CLIN-2025-042,LB,CLIN-2025-042-SITE03-0008,4,CREAT,Creatinine,1.15,mg/dL,1.15,mg/dL,NORMAL,4,Week 8,2025-09-17
CLIN-2025-042,LB,CLIN-2025-042-SITE03-0008,5,HGB,Hemoglobin,19.67,g/dL,19.67,g/dL,HIGH,4,Week 8,2025-09-17
CLIN-2025-042,LB,CLIN-2025-042-SITE03-0008,6,WBC,White blood cell count,7.58,K/uL,7.58,K/uL,NORMAL,4,Week 8,2025-09-17
CLIN-2025-042,LB,CLIN-2025-042-SITE03-0008,7,PLT,Platelet count,323.16,K/uL,323.16,K/uL,NORMAL,4,Week 8,2025-09-17
CLIN-2025-042,LB,CLIN-2025-042-SITE03-0008,8,GLUC,Glucose,99.82,mg/dL,99.82,mg/dL,NORMAL,4,Week 8,2025-09-17
CLIN-2025-042,LB,CLIN-2025-042-SITE04-0009,1,ALT,Alanine aminotransferase,22.59,U/L,22.59,U/L,NORMAL,1,Screening,2025-01-21
CLIN-2025-042,LB,CLIN-2025-042-SITE04-0009,2,AST,Aspartate aminotransferase,33.63,U/L,33.63,U/L,NORMAL,1,Screening,2025-01-21
CLIN-2025-042,LB,CLIN-2025-042-SITE04-0009,3,BILI,Bilirubin total,0.63,mg/dL,0.63,mg/dL,NORMAL,1,Screening,2025-01-21
CLIN-2025-042,LB,CLIN-2025-042-SITE04-0009,4,CREAT,Creatinine,1.01,mg/dL,1.01,mg/dL,NORMAL,1,Screening,2025-01-21
CLIN-2025-042,LB,CLIN-2025-042-SITE04-0009,5,HGB,Hemoglobin,15.67,g/dL,15.67,g/dL,NORMAL,1,Screening,2025-01-21
CLIN-2025-042,LB,CLIN-2025-042-SITE04-0009,6,WBC,White blood cell count,8.18,K/uL,8.18,K/uL,NORMAL,1,Screening,2025-01-21
CLIN-2025-042,LB,CLIN-2025-042-SITE04-0009,7,PLT,Platelet count,227.89,K/uL,227.89,K/uL,NORMAL,1,Screening,2025-01-21
CLIN-2025-042,LB,CLIN-2025-042-SITE04-0009,8,GLUC,Glucose,197.12,mg/dL,197.12,mg/dL,HIGH,1,Screening,2025-01-21
CLIN-2025-042,LB,CLIN-2025-042-SITE04-0009,1,ALT,Alanine aminotransferase,38.78,U/L,38.78,U/L,NORMAL,2,Baseline,2025-03-25
CLIN-2025-042,LB,CLIN-2025-042-SITE04-0009,2,AST,Aspartate aminotransferase,23.74,U/L,23.74,U/L,NORMAL,2,Baseline,2025-03-25
CLIN-2025-042,LB,CLIN-2025-042-SITE04-0009,3,BILI,Bilirubin total,0.43,mg/dL,0.43,mg/dL,NORMAL,2,Baseline,2025-03-25
CLIN-2025-042,LB,CLIN-2025-042-SITE04-0009,4,CREAT,Creatinine,0.54,mg/dL,0.54,mg/dL,LOW,2,Baseline,2025-03-25
CLIN-2025-042,LB,CLIN-2025-042-SITE04-0009,5,HGB,Hemoglobin,16.18,g/dL,16.18,g/dL,NORMAL,2,Baseline,2025-03-25
CLIN-2025-042,LB,CLIN-2025-042-SITE04-0009,6,WBC,White blood cell count,8.05,K/uL,8.05,K/uL,NORMAL,2,Baseline,2025-03-25
CLIN-2025-042,LB,CLIN-2025-042-SITE04-0009,7,PLT,Platelet count,302.27,K/uL,302.27,K/uL,NORMAL,2,Baseline,2025-03-25
CLIN-2025-042,LB,CLIN-2025-042-SITE04-0009,8,GLUC,Glucose,60.95,mg/dL,60.95,mg/dL,NORMAL,2,Baseline,2025-03-25
CLIN-2025-042,LB,CLIN-2025-042-SITE04-0009,1,ALT,Alanine aminotransferase,4.22,U/L,4.22,U/L,LOW,3,Week 4,2025-04-22
CLIN-2025-042,LB,CLIN-2025-042-SITE04-0009,2,AST,Aspartate aminotransferase,23.63,U/L,23.63,U/L,NORMAL,3,Week 4,2025-04-22
CLIN-2025-042,LB,CLIN-2025-042-SITE04-0009,3,BILI,Bilirubin total,0.10,mg/dL,0.1,mg/dL,LOW,3,Week 4,2025-04-22
CLIN-2025-042,LB,CLIN-2025-042-SITE04-0009,4,CREAT,Creatinine,0.28,mg/dL,0.28,mg/dL,LOW,3,Week 4,2025-04-22
CLIN-2025-042,LB,CLIN-2025-042-SITE04-0009,5,HGB,Hemoglobin,15.85,g/dL,15.85,g/dL,NORMAL,3,Week 4,2025-04-22
CLIN-2025-042,LB,CLIN-2025-042-SITE04-0009,6,WBC,White blood cell count,7.55,K/uL,7.55,K/uL,NORMAL,3,Week 4,2025-04-22
CLIN-2025-042,LB,CLIN-2025-042-SITE04-0009,7,PLT,Platelet count,252.52,K/uL,252.52,K/uL,NORMAL,3,Week 4,2025-04-22
CLIN-2025-042,LB,CLIN-2025-042-SITE04-0009,8,GLUC,Glucose,74.15,mg/dL,74.15,mg/dL,NORMAL,3,Week 4,2025-04-22
CLIN-2025-042,LB,CLIN-2025-042-SITE04-0009,1,ALT,Alanine aminotransferase,34.90,U/L,34.9,U/L,NORMAL,4,Week 8,2025-05-20
CLIN-2025-042,LB,CLIN-2025-042-SITE04-0009,2,AST,Aspartate aminotransferase,27.22,U/L,27.22,U/L,NORMAL,4,Week 8,2025-05-20
CLIN-2025-042,LB,CLIN-2025-042-SITE04-0009,3,BILI,Bilirubin total,0.60,mg/dL,0.6,mg/dL,NORMAL,4,Week 8,2025-05-20
CLIN-2025-042,LB,CLIN-2025-042-SITE04-0009,4,CREAT,Creatinine,0.89,mg/dL,0.89,mg/dL,NORMAL,4,Week 8,2025-05-20
CLIN-2025-042,LB,CLIN-2025-042-SITE04-0009,5,HGB,Hemoglobin,8.11,g/dL,8.11,g/dL,LOW,4,Week 8,2025-05-20
CLIN-2025-042,LB,CLIN-2025-042-SITE04-0009,6,WBC,White blood cell count,11.37,K/uL,11.37,K/uL,HIGH,4,Week 8,2025-05-20
CLIN-2025-042,LB,CLIN-2025-042-SITE04-0009,7,PLT,Platelet count,338.83,K/uL,338.83,K/uL,NORMAL,4,Week 8,2025-05-20
CLIN-2025-042,LB,CLIN-2025-042-SITE04-0009,8,GLUC,Glucose,80.23,mg/dL,80.23,mg/dL,NORMAL,4,Week 8,2025-05-20
CLIN-2025-042,LB,CLIN-2025-042-SITE05-0010,1,ALT,Alanine aminotransferase,30.26,U/L,30.26,U/L,NORMAL,1,Screening,2025-04-28
CLIN-2025-042,LB,CLIN-2025-042-SITE05-0010,2,AST,Aspartate aminotransferase,19.67,U/L,19.67,U/L,NORMAL,1,Screening,2025-04-28
CLIN-2025-042,LB,CLIN-2025-042-SITE05-0010,3,BILI,Bilirubin total,0.55,mg/dL,0.55,mg/dL,NORMAL,1,Screening,2025-04-28
CLIN-2025-042,LB,CLIN-2025-042-SITE05-0010,4,CREAT,Creatinine,0.88,mg/dL,0.88,mg/dL,NORMAL,1,Screening,2025-04-28
CLIN-2025-042,LB,CLIN-2025-042-SITE05-0010,5,HGB,Hemoglobin,15.30,g/dL,15.3,g/dL,NORMAL,1,Screening,2025-04-28
CLIN-2025-042,LB,CLIN-2025-042-SITE05-0010,6,WBC,White blood cell count,5.89,K/uL,5.89,K/uL,NORMAL,1,Screening,2025-04-28
CLIN-2025-042,LB,CLIN-2025-042-SITE05-0010,7,PLT,Platelet count,492.88,K/uL,492.88,K/uL,HIGH,1,Screening,2025-04-28
CLIN-2025-042,LB,CLIN-2025-042-SITE05-0010,8,GLUC,Glucose,78.26,mg/dL,78.26,mg/dL,NORMAL,1,Screening,2025-04-28
CLIN-2025-042,LB,CLIN-2025-042-SITE05-0010,1,ALT,Alanine aminotransferase,44.30,U/L,44.3,U/L,NORMAL,2,Baseline,2025-06-30
CLIN-2025-042,LB,CLIN-2025-042-SITE05-0010,2,AST,Aspartate aminotransferase,32.50,U/L,32.5,U/L,NORMAL,2,Baseline,2025-06-30
CLIN-2025-042,LB,CLIN-2025-042-SITE05-0010,3,BILI,Bilirubin total,0.10,mg/dL,0.1,mg/dL,LOW,2,Baseline,2025-06-30
CLIN-2025-042,LB,CLIN-2025-042-SITE05-0010,4,CREAT,Creatinine,0.45,mg/dL,0.45,mg/dL,LOW,2,Baseline,2025-06-30
CLIN-2025-042,LB,CLIN-2025-042-SITE05-0010,5,HGB,Hemoglobin,8.69,g/dL,8.69,g/dL,LOW,2,Baseline,2025-06-30
CLIN-2025-042,LB,CLIN-2025-042-SITE05-0010,6,WBC,White blood cell count,13.67,K/uL,13.67,K/uL,NORMAL,2,Baseline,2025-06-30
CLIN-2025-042,LB,CLIN-2025-042-SITE05-0010,7,PLT,Platelet count,269.24,K/uL,269.24,K/uL,NORMAL,2,Baseline,2025-06-30
CLIN-2025-042,LB,CLIN-2025-042-SITE05-0010,8,GLUC,Glucose,94.91,mg/dL,94.91,mg/dL,NORMAL,2,Baseline,2025-06-30
CLIN-2025-042,LB,CLIN-2025-042-SITE05-0010,1,ALT,Alanine aminotransferase,46.45,U/L,46.45,U/L,NORMAL,3,Week 4,2025-07-28
CLIN-2025-042,LB,CLIN-2025-042-SITE05-0010,2,AST,Aspartate aminotransferase,22.35,U/L,22.35,U/L,NORMAL,3,Week 4,2025-07-28
CLIN-2025-042,LB,CLIN-2025-042-SITE05-0010,3,BILI,Bilirubin total,0.86,mg/dL,0.86,mg/dL,NORMAL,3,Week 4,2025-07-28
CLIN-2025-042,LB,CLIN-2025-042-SITE05-0010,4,CREAT,Creatinine,1.20,mg/dL,1.2,mg/dL,NORMAL,3,Week 4,2025-07-28
CLIN-2025-042,LB,CLIN-2025-042-SITE05-0010,5,HGB,Hemoglobin,14.79,g/dL,14.79,g/dL,NORMAL,3,Week 4,2025-07-28
CLIN-2025-042,LB,CLIN-2025-042-SITE05-0010,6,WBC,White blood cell count,8.86,K/uL,8.86,K/uL,NORMAL,3,Week 4,2025-07-28
CLIN-2025-042,LB,CLIN-2025-042-SITE05-0010,7,PLT,Platelet count,463.57,K/uL,463.57,K/uL,HIGH,3,Week 4,2025-07-28
CLIN-2025-042,LB,CLIN-2025-042-SITE05-0010,8,GLUC,Glucose,83.43,mg/dL,83.43,mg/dL,NORMAL,3,Week 4,2025-07-28
CLIN-2025-042,LB,CLIN-2025-042-SITE05-0010,1,ALT,Alanine aminotransferase,48.86,U/L,48.86,U/L,NORMAL,4,Week 8,2025-08-25
CLIN-2025-042,LB,CLIN-2025-042-SITE05-0010,2,AST,Aspartate aminotransferase,30.92,U/L,30.92,U/L,NORMAL,4,Week 8,2025-08-25
CLIN-2025-042,LB,CLIN-2025-042-SITE05-0010,3,BILI,Bilirubin total,0.69,mg/dL,0.69,mg/dL,NORMAL,4,Week 8,2025-08-25
CLIN-2025-042,LB,CLIN-2025-042-SITE05-0010,4,CREAT,Creatinine,0.93,mg/dL,0.93,mg/dL,NORMAL,4,Week 8,2025-08-25
CLIN-2025-042,LB,CLIN-2025-042-SITE05-0010,5,HGB,Hemoglobin,13.93,g/dL,13.93,g/dL,NORMAL,4,Week 8,2025-08-25
CLIN-2025-042,LB,CLIN-2025-042-SITE05-0010,6,WBC,White blood cell count,1.95,K/uL,1.95,K/uL,LOW,4,Week 8,2025-08-25
CLIN-2025-042,LB,CLIN-2025-042-SITE05-0010,7,PLT,Platelet count,408.89,K/uL,408.89,K/uL,NORMAL,4,Week 8,2025-08-25
CLIN-2025-042,LB,CLIN-2025-042-SITE05-0010,8,GLUC,Glucose,43.33,mg/dL,43.33,mg/dL,LOW,4,Week 8,2025-08-25
CLIN-2025-042,LB,CLIN-2025-042-SITE01-0011,1,ALT,Alanine aminotransferase,9.66,U/L,9.66,U/L,NORMAL,1,Screening,2025-04-05
CLIN-2025-042,LB,CLIN-2025-042-SITE01-0011,2,AST,Aspartate aminotransferase,31.38,U/L,31.38,U/L,NORMAL,1,Screening,2025-04-05
CLIN-2025-042,LB,CLIN-2025-042-SITE01-0011,3,BILI,Bilirubin total,0.39,mg/dL,0.39,mg/dL,NORMAL,1,Screening,2025-04-05
CLIN-2025-042,LB,CLIN-2025-042-SITE01-0011,4,CREAT,Creatinine,0.94,mg/dL,0.94,mg/dL,NORMAL,1,Screening,2025-04-05
CLIN-2025-042,LB,CLIN-2025-042-SITE01-0011,5,HGB,Hemoglobin,17.12,g/dL,17.12,g/dL,NORMAL,1,Screening,2025-04-05
CLIN-2025-042,LB,CLIN-2025-042-SITE01-0011,6,WBC,White blood cell count,6.15,K/uL,6.15,K/uL,NORMAL,1,Screening,2025-04-05
CLIN-2025-042,LB,CLIN-2025-042-SITE01-0011,7,PLT,Platelet count,353.72,K/uL,353.72,K/uL,NORMAL,1,Screening,2025-04-05
CLIN-2025-042,LB,CLIN-2025-042-SITE01-0011,8,GLUC,Glucose,84.20,mg/dL,84.2,mg/dL,NORMAL,1,Screening,2025-04-05
CLIN-2025-042,LB,CLIN-2025-042-SITE01-0011,1,ALT,Alanine aminotransferase,28.01,U/L,28.01,U/L,NORMAL,2,Baseline,2025-06-07
CLIN-2025-042,LB,CLIN-2025-042-SITE01-0011,2,AST,Aspartate aminotransferase,31.80,U/L,31.8,U/L,NORMAL,2,Baseline,2025-06-07
CLIN-2025-042,LB,CLIN-2025-042-SITE01-0011,3,BILI,Bilirubin total,0.81,mg/dL,0.81,mg/dL,NORMAL,2,Baseline,2025-06-07
CLIN-2025-042,LB,CLIN-2025-042-SITE01-0011,4,CREAT,Creatinine,0.84,mg/dL,0.84,mg/dL,NORMAL,2,Baseline,2025-06-07
CLIN-2025-042,LB,CLIN-2025-042-SITE01-0011,5,HGB,Hemoglobin,17.27,g/dL,17.27,g/dL,NORMAL,2,Baseline,2025-06-07
CLIN-2025-042,LB,CLIN-2025-042-SITE01-0011,6,WBC,White blood cell count,2.60,K/uL,2.6,K/uL,LOW,2,Baseline,2025-06-07
CLIN-2025-042,LB,CLIN-2025-042-SITE01-0011,7,PLT,Platelet count,322.02,K/uL,322.02,K/uL,NORMAL,2,Baseline,2025-06-07
CLIN-2025-042,LB,CLIN-2025-042-SITE01-0011,8,GLUC,Glucose,266.38,mg/dL,266.38,mg/dL,HIGH,2,Baseline,2025-06-07
CLIN-2025-042,LB,CLIN-2025-042-SITE01-0011,1,ALT,Alanine aminotransferase,50.13,U/L,50.13,U/L,NORMAL,3,Week 4,2025-07-05
CLIN-2025-042,LB,CLIN-2025-042-SITE01-0011,2,AST,Aspartate aminotransferase,25.16,U/L,25.16,U/L,NORMAL,3,Week 4,2025-07-05
CLIN-2025-042,LB,CLIN-2025-042-SITE01-0011,3,BILI,Bilirubin total,0.73,mg/dL,0.73,mg/dL,NORMAL,3,Week 4,2025-07-05
CLIN-2025-042,LB,CLIN-2025-042-SITE01-0011,4,CREAT,Creatinine,1.21,mg/dL,1.21,mg/dL,NORMAL,3,Week 4,2025-07-05
CLIN-2025-042,LB,CLIN-2025-042-SITE01-0011,5,HGB,Hemoglobin,4.79,g/dL,4.79,g/dL,LOW,3,Week 4,2025-07-05
CLIN-2025-042,LB,CLIN-2025-042-SITE01-0011,6,WBC,White blood cell count,6.12,K/uL,6.12,K/uL,NORMAL,3,Week 4,2025-07-05
CLIN-2025-042,LB,CLIN-2025-042-SITE01-0011,7,PLT,Platelet count,55.15,K/uL,55.15,K/uL,LOW,3,Week 4,2025-07-05
CLIN-2025-042,LB,CLIN-2025-042-SITE01-0011,8,GLUC,Glucose,70.34,mg/dL,70.34,mg/dL,NORMAL,3,Week 4,2025-07-05
CLIN-2025-042,LB,CLIN-2025-042-SITE01-0011,1,ALT,Alanine aminotransferase,17.92,U/L,17.92,U/L,NORMAL,4,Week 8,2025-08-02
CLIN-2025-042,LB,CLIN-2025-042-SITE01-0011,2,AST,Aspartate aminotransferase,7.42,U/L,7.42,U/L,NORMAL,4,Week 8,2025-08-02
CLIN-2025-042,LB,CLIN-2025-042-SITE01-0011,3,BILI,Bilirubin total,0.74,mg/dL,0.74,mg/dL,NORMAL,4,Week 8,2025-08-02
CLIN-2025-042,LB,CLIN-2025-042-SITE01-0011,4,CREAT,Creatinine,0.82,mg/dL,0.82,mg/dL,NORMAL,4,Week 8,2025-08-02
CLIN-2025-042,LB,CLIN-2025-042-SITE01-0011,5,HGB,Hemoglobin,13.71,g/dL,13.71,g/dL,NORMAL,4,Week 8,2025-08-02
CLIN-2025-042,LB,CLIN-2025-042-SITE01-0011,6,WBC,White blood cell count,7.90,K/uL,7.9,K/uL,NORMAL,4,Week 8,2025-08-02
CLIN-2025-042,LB,CLIN-2025-042-SITE01-0011,7,PLT,Platelet count,374.76,K/uL,374.76,K/uL,NORMAL,4,Week 8,2025-08-02
CLIN-2025-042,LB,CLIN-2025-042-SITE01-0011,8,GLUC,Glucose,82.70,mg/dL,82.7,mg/dL,NORMAL,4,Week 8,2025-08-02
CLIN-2025-042,LB,CLIN-2025-042-SITE02-0012,1,ALT,Alanine aminotransferase,22.66,U/L,22.66,U/L,NORMAL,1,Screening,2025-02-17
CLIN-2025-042,LB,CLIN-2025-042-SITE02-0012,2,AST,Aspartate aminotransferase,16.61,U/L,16.61,U/L,NORMAL,1,Screening,2025-02-17
CLIN-2025-042,LB,CLIN-2025-042-SITE02-0012,3,BILI,Bilirubin total,1.04,mg/dL,1.04,mg/dL,NORMAL,1,Screening,2025-02-17
CLIN-2025-042,LB,CLIN-2025-042-SITE02-0012,4,CREAT,Creatinine,1.48,mg/dL,1.48,mg/dL,HIGH,1,Screening,2025-02-17
CLIN-2025-042,LB,CLIN-2025-042-SITE02-0012,5,HGB,Hemoglobin,16.17,g/dL,16.17,g/dL,NORMAL,1,Screening,2025-02-17
CLIN-2025-042,LB,CLIN-2025-042-SITE02-0012,6,WBC,White blood cell count,3.10,K/uL,3.1,K/uL,LOW,1,Screening,2025-02-17
CLIN-2025-042,LB,CLIN-2025-042-SITE02-0012,7,PLT,Platelet count,263.40,K/uL,263.4,K/uL,NORMAL,1,Screening,2025-02-17
CLIN-2025-042,LB,CLIN-2025-042-SITE02-0012,8,GLUC,Glucose,121.78,mg/dL,121.78,mg/dL,HIGH,1,Screening,2025-02-17
CLIN-2025-042,LB,CLIN-2025-042-SITE02-0012,1,ALT,Alanine aminotransferase,64.95,U/L,64.95,U/L,HIGH,2,Baseline,2025-04-21
CLIN-2025-042,LB,CLIN-2025-042-SITE02-0012,2,AST,Aspartate aminotransferase,26.37,U/L,26.37,U/L,NORMAL,2,Baseline,2025-04-21
CLIN-2025-042,LB,CLIN-2025-042-SITE02-0012,3,BILI,Bilirubin total,0.75,mg/dL,0.75,mg/dL,NORMAL,2,Baseline,2025-04-21
CLIN-2025-042,LB,CLIN-2025-042-SITE02-0012,4,CREAT,Creatinine,0.58,mg/dL,0.58,mg/dL,LOW,2,Baseline,2025-04-21
CLIN-2025-042,LB,CLIN-2025-042-SITE02-0012,5,HGB,Hemoglobin,16.18,g/dL,16.18,g/dL,NORMAL,2,Baseline,2025-04-21
CLIN-2025-042,LB,CLIN-2025-042-SITE02-0012,6,WBC,White blood cell count,11.36,K/uL,11.36,K/uL,NORMAL,2,Baseline,2025-04-21
CLIN-2025-042,LB,CLIN-2025-042-SITE02-0012,7,PLT,Platelet count,232.45,K/uL,232.45,K/uL,NORMAL,2,Baseline,2025-04-21
CLIN-2025-042,LB,CLIN-2025-042-SITE02-0012,8,GLUC,Glucose,77.92,mg/dL,77.92,mg/dL,NORMAL,2,Baseline,2025-04-21
CLIN-2025-042,LB,CLIN-2025-042-SITE02-0012,1,ALT,Alanine aminotransferase,31.19,U/L,31.19,U/L,NORMAL,3,Week 4,2025-05-19
CLIN-2025-042,LB,CLIN-2025-042-SITE02-0012,2,AST,Aspartate aminotransferase,19.00,U/L,19.0,U/L,NORMAL,3,Week 4,2025-05-19
CLIN-2025-042,LB,CLIN-2025-042-SITE02-0012,3,BILI,Bilirubin total,0.35,mg/dL,0.35,mg/dL,NORMAL,3,Week 4,2025-05-19
CLIN-2025-042,LB,CLIN-2025-042-SITE02-0012,4,CREAT,Creatinine,0.87,mg/dL,0.87,mg/dL,NORMAL,3,Week 4,2025-05-19
CLIN-2025-042,LB,CLIN-2025-042-SITE02-0012,5,HGB,Hemoglobin,15.42,g/dL,15.42,g/dL,NORMAL,3,Week 4,2025-05-19
CLIN-2025-042,LB,CLIN-2025-042-SITE02-0012,6,WBC,White blood cell count,3.69,K/uL,3.69,K/uL,LOW,3,Week 4,2025-05-19
CLIN-2025-042,LB,CLIN-2025-042-SITE02-0012,7,PLT,Platelet count,367.78,K/uL,367.78,K/uL,NORMAL,3,Week 4,2025-05-19
CLIN-2025-042,LB,CLIN-2025-042-SITE02-0012,8,GLUC,Glucose,79.03,mg/dL,79.03,mg/dL,NORMAL,3,Week 4,2025-05-19
CLIN-2025-042,LB,CLIN-2025-042-SITE02-0012,1,ALT,Alanine aminotransferase,63.24,U/L,63.24,U/L,HIGH,4,Week 8,2025-06-16
CLIN-2025-042,LB,CLIN-2025-042-SITE02-0012,2,AST,Aspartate aminotransferase,20.85,U/L,20.85,U/L,NORMAL,4,Week 8,2025-06-16
CLIN-2025-042,LB,CLIN-2025-042-SITE02-0012,3,BILI,Bilirubin total,0.10,mg/dL,0.1,mg/dL,LOW,4,Week 8,2025-06-16
CLIN-2025-042,LB,CLIN-2025-042-SITE02-0012,4,CREAT,Creatinine,1.00,mg/dL,1.0,mg/dL,NORMAL,4,Week 8,2025-06-16
CLIN-2025-042,LB,CLIN-2025-042-SITE02-0012,5,HGB,Hemoglobin,14.93,g/dL,14.93,g/dL,NORMAL,4,Week 8,2025-06-16
CLIN-2025-042,LB,CLIN-2025-042-SITE02-0012,6,WBC,White blood cell count,7.79,K/uL,7.79,K/uL,NORMAL,4,Week 8,2025-06-16
CLIN-2025-042,LB,CLIN-2025-042-SITE02-0012,7,PLT,Platelet count,313.59,K/uL,313.59,K/uL,NORMAL,4,Week 8,2025-06-16
CLIN-2025-042,LB,CLIN-2025-042-SITE02-0012,8,GLUC,Glucose,127.83,mg/dL,127.83,mg/dL,HIGH,4,Week 8,2025-06-16
CLIN-2025-042,LB,CLIN-2025-042-SITE03-0013,1,ALT,Alanine aminotransferase,53.58,U/L,53.58,U/L,NORMAL,1,Screening,2025-03-10
CLIN-2025-042,LB,CLIN-2025-042-SITE03-0013,2,AST,Aspartate aminotransferase,6.40,U/L,6.4,U/L,NORMAL,1,Screening,2025-03-10
CLIN-2025-042,LB,CLIN-2025-042-SITE03-0013,3,BILI,Bilirubin total,0.63,mg/dL,0.63,mg/dL,NORMAL,1,Screening,2025-03-10
CLIN-2025-042,LB,CLIN-2025-042-SITE03-0013,4,CREAT,Creatinine,1.73,mg/dL,1.73,mg/dL,HIGH,1,Screening,2025-03-10
CLIN-2025-042,LB,CLIN-2025-042-SITE03-0013,5,HGB,Hemoglobin,14.84,g/dL,14.84,g/dL,NORMAL,1,Screening,2025-03-10
CLIN-2025-042,LB,CLIN-2025-042-SITE03-0013,6,WBC,White blood cell count,7.71,K/uL,7.71,K/uL,NORMAL,1,Screening,2025-03-10
CLIN-2025-042,LB,CLIN-2025-042-SITE03-0013,7,PLT,Platelet count,258.60,K/uL,258.6,K/uL,NORMAL,1,Screening,2025-03-10
CLIN-2025-042,LB,CLIN-2025-042-SITE03-0013,8,GLUC,Glucose,24.02,mg/dL,24.02,mg/dL,LOW,1,Screening,2025-03-10
CLIN-2025-042,LB,CLIN-2025-042-SITE03-0013,1,ALT,Alanine aminotransferase,45.38,U/L,45.38,U/L,NORMAL,2,Baseline,2025-05-12
CLIN-2025-042,LB,CLIN-2025-042-SITE03-0013,2,AST,Aspartate aminotransferase,22.05,U/L,22.05,U/L,NORMAL,2,Baseline,2025-05-12
CLIN-2025-042,LB,CLIN-2025-042-SITE03-0013,3,BILI,Bilirubin total,1.43,mg/dL,1.43,mg/dL,HIGH,2,Baseline,2025-05-12
CLIN-2025-042,LB,CLIN-2025-042-SITE03-0013,4,CREAT,Creatinine,0.98,mg/dL,0.98,mg/dL,NORMAL,2,Baseline,2025-05-12
CLIN-2025-042,LB,CLIN-2025-042-SITE03-0013,5,HGB,Hemoglobin,17.86,g/dL,17.86,g/dL,HIGH,2,Baseline,2025-05-12
CLIN-2025-042,LB,CLIN-2025-042-SITE03-0013,6,WBC,White blood cell count,8.35,K/uL,8.35,K/uL,NORMAL,2,Baseline,2025-05-12
CLIN-2025-042,LB,CLIN-2025-042-SITE03-0013,7,PLT,Platelet count,386.31,K/uL,386.31,K/uL,NORMAL,2,Baseline,2025-05-12
CLIN-2025-042,LB,CLIN-2025-042-SITE03-0013,8,GLUC,Glucose,95.53,mg/dL,95.53,mg/dL,NORMAL,2,Baseline,2025-05-12
CLIN-2025-042,LB,CLIN-2025-042-SITE03-0013,1,ALT,Alanine aminotransferase,16.71,U/L,16.71,U/L,NORMAL,3,Week 4,2025-06-09
CLIN-2025-042,LB,CLIN-2025-042-SITE03-0013,2,AST,Aspartate aminotransferase,18.68,U/L,18.68,U/L,NORMAL,3,Week 4,2025-06-09
CLIN-2025-042,LB,CLIN-2025-042-SITE03-0013,3,BILI,Bilirubin total,0.10,mg/dL,0.1,mg/dL,LOW,3,Week 4,2025-06-09
CLIN-2025-042,LB,CLIN-2025-042-SITE03-0013,4,CREAT,Creatinine,1.11,mg/dL,1.11,mg/dL,NORMAL,3,Week 4,2025-06-09
CLIN-2025-042,LB,CLIN-2025-042-SITE03-0013,5,HGB,Hemoglobin,15.61,g/dL,15.61,g/dL,NORMAL,3,Week 4,2025-06-09
CLIN-2025-042,LB,CLIN-2025-042-SITE03-0013,6,WBC,White blood cell count,7.39,K/uL,7.39,K/uL,NORMAL,3,Week 4,2025-06-09
CLIN-2025-042,LB,CLIN-2025-042-SITE03-0013,7,PLT,Platelet count,435.05,K/uL,435.05,K/uL,NORMAL,3,Week 4,2025-06-09
CLIN-2025-042,LB,CLIN-2025-042-SITE03-0013,8,GLUC,Glucose,98.52,mg/dL,98.52,mg/dL,NORMAL,3,Week 4,2025-06-09
CLIN-2025-042,LB,CLIN-2025-042-SITE03-0013,1,ALT,Alanine aminotransferase,3.87,U/L,3.87,U/L,LOW,4,Week 8,2025-07-07
CLIN-2025-042,LB,CLIN-2025-042-SITE03-0013,2,AST,Aspartate aminotransferase,29.35,U/L,29.35,U/L,NORMAL,4,Week 8,2025-07-07
CLIN-2025-042,LB,CLIN-2025-042-SITE03-0013,3,BILI,Bilirubin total,0.60,mg/dL,0.6,mg/dL,NORMAL,4,Week 8,2025-07-07
CLIN-2025-042,LB,CLIN-2025-042-SITE03-0013,4,CREAT,Creatinine,1.08,mg/dL,1.08,mg/dL,NORMAL,4,Week 8,2025-07-07
CLIN-2025-042,LB,CLIN-2025-042-SITE03-0013,5,HGB,Hemoglobin,15.24,g/dL,15.24,g/dL,NORMAL,4,Week 8,2025-07-07
CLIN-2025-042,LB,CLIN-2025-042-SITE03-0013,6,WBC,White blood cell count,6.32,K/uL,6.32,K/uL,NORMAL,4,Week 8,2025-07-07
CLIN-2025-042,LB,CLIN-2025-042-SITE03-0013,7,PLT,Platelet count,425.47,K/uL,425.47,K/uL,NORMAL,4,Week 8,2025-07-07
CLIN-2025-042,LB,CLIN-2025-042-SITE03-0013,8,GLUC,Glucose,83.86,mg/dL,83.86,mg/dL,NORMAL,4,Week 8,2025-07-07
CLIN-2025-042,LB,CLIN-2025-042-SITE04-0014,1,ALT,Alanine aminotransferase,33.11,U/L,33.11,U/L,NORMAL,1,Screening,2025-01-08
CLIN-2025-042,LB,CLIN-2025-042-SITE04-0014,2,AST,Aspartate aminotransferase,47.81,U/L,47.81,U/L,HIGH,1,Screening,2025-01-08
CLIN-2025-042,LB,CLIN-2025-042-SITE04-0014,3,BILI,Bilirubin total,0.75,mg/dL,0.75,mg/dL,NORMAL,1,Screening,2025-01-08
CLIN-2025-042,LB,CLIN-2025-042-SITE04-0014,4,CREAT,Creatinine,0.23,mg/dL,0.23,mg/dL,LOW,1,Screening,2025-01-08
CLIN-2025-042,LB,CLIN-2025-042-SITE04-0014,5,HGB,Hemoglobin,15.65,g/dL,15.65,g/dL,NORMAL,1,Screening,2025-01-08
CLIN-2025-042,LB,CLIN-2025-042-SITE04-0014,6,WBC,White blood cell count,6.90,K/uL,6.9,K/uL,NORMAL,1,Screening,2025-01-08
CLIN-2025-042,LB,CLIN-2025-042-SITE04-0014,7,PLT,Platelet count,332.15,K/uL,332.15,K/uL,NORMAL,1,Screening,2025-01-08
CLIN-2025-042,LB,CLIN-2025-042-SITE04-0014,8,GLUC,Glucose,113.38,mg/dL,113.38,mg/dL,HIGH,1,Screening,2025-01-08
CLIN-2025-042,LB,CLIN-2025-042-SITE04-0014,1,ALT,Alanine aminotransferase,15.97,U/L,15.97,U/L,NORMAL,2,Baseline,2025-03-12
CLIN-2025-042,LB,CLIN-2025-042-SITE04-0014,2,AST,Aspartate aminotransferase,23.86,U/L,23.86,U/L,NORMAL,2,Baseline,2025-03-12
CLIN-2025-042,LB,CLIN-2025-042-SITE04-0014,3,BILI,Bilirubin total,1.01,mg/dL,1.01,mg/dL,NORMAL,2,Baseline,2025-03-12
CLIN-2025-042,LB,CLIN-2025-042-SITE04-0014,4,CREAT,Creatinine,0.85,mg/dL,0.85,mg/dL,NORMAL,2,Baseline,2025-03-12
CLIN-2025-042,LB,CLIN-2025-042-SITE04-0014,5,HGB,Hemoglobin,14.84,g/dL,14.84,g/dL,NORMAL,2,Baseline,2025-03-12
CLIN-2025-042,LB,CLIN-2025-042-SITE04-0014,6,WBC,White blood cell count,7.46,K/uL,7.46,K/uL,NORMAL,2,Baseline,2025-03-12
CLIN-2025-042,LB,CLIN-2025-042-SITE04-0014,7,PLT,Platelet count,255.84,K/uL,255.84,K/uL,NORMAL,2,Baseline,2025-03-12
CLIN-2025-042,LB,CLIN-2025-042-SITE04-0014,8,GLUC,Glucose,72.78,mg/dL,72.78,mg/dL,NORMAL,2,Baseline,2025-03-12
CLIN-2025-042,LB,CLIN-2025-042-SITE04-0014,1,ALT,Alanine aminotransferase,33.33,U/L,33.33,U/L,NORMAL,3,Week 4,2025-04-09
CLIN-2025-042,LB,CLIN-2025-042-SITE04-0014,2,AST,Aspartate aminotransferase,18.76,U/L,18.76,U/L,NORMAL,3,Week 4,2025-04-09
CLIN-2025-042,LB,CLIN-2025-042-SITE04-0014,3,BILI,Bilirubin total,0.30,mg/dL,0.3,mg/dL,NORMAL,3,Week 4,2025-04-09
CLIN-2025-042,LB,CLIN-2025-042-SITE04-0014,4,CREAT,Creatinine,1.03,mg/dL,1.03,mg/dL,NORMAL,3,Week 4,2025-04-09
CLIN-2025-042,LB,CLIN-2025-042-SITE04-0014,5,HGB,Hemoglobin,15.16,g/dL,15.16,g/dL,NORMAL,3,Week 4,2025-04-09
CLIN-2025-042,LB,CLIN-2025-042-SITE04-0014,6,WBC,White blood cell count,8.19,K/uL,8.19,K/uL,NORMAL,3,Week 4,2025-04-09
CLIN-2025-042,LB,CLIN-2025-042-SITE04-0014,7,PLT,Platelet count,174.91,K/uL,174.91,K/uL,NORMAL,3,Week 4,2025-04-09
CLIN-2025-042,LB,CLIN-2025-042-SITE04-0014,8,GLUC,Glucose,176.58,mg/dL,176.58,mg/dL,HIGH,3,Week 4,2025-04-09
CLIN-2025-042,LB,CLIN-2025-042-SITE04-0014,1,ALT,Alanine aminotransferase,33.62,U/L,33.62,U/L,NORMAL,4,Week 8,2025-05-07
CLIN-2025-042,LB,CLIN-2025-042-SITE04-0014,2,AST,Aspartate aminotransferase,29.79,U/L,29.79,U/L,NORMAL,4,Week 8,2025-05-07
CLIN-2025-042,LB,CLIN-2025-042-SITE04-0014,3,BILI,Bilirubin total,1.51,mg/dL,1.51,mg/dL,HIGH,4,Week 8,2025-05-07
CLIN-2025-042,LB,CLIN-2025-042-SITE04-0014,4,CREAT,Creatinine,0.97,mg/dL,0.97,mg/dL,NORMAL,4,Week 8,2025-05-07
CLIN-2025-042,LB,CLIN-2025-042-SITE04-0014,5,HGB,Hemoglobin,5.31,g/dL,5.31,g/dL,LOW,4,Week 8,2025-05-07
CLIN-2025-042,LB,CLIN-2025-042-SITE04-0014,6,WBC,White blood cell count,7.05,K/uL,7.05,K/uL,NORMAL,4,Week 8,2025-05-07
CLIN-2025-042,LB,CLIN-2025-042-SITE04-0014,7,PLT,Platelet count,75.39,K/uL,75.39,K/uL,LOW,4,Week 8,2025-05-07
CLIN-2025-042,LB,CLIN-2025-042-SITE04-0014,8,GLUC,Glucose,78.32,mg/dL,78.32,mg/dL,NORMAL,4,Week 8,2025-05-07
CLIN-2025-042,LB,CLIN-2025-042-SITE05-0015,1,ALT,Alanine aminotransferase,3.26,U/L,3.26,U/L,LOW,1,Screening,2025-01-22
CLIN-2025-042,LB,CLIN-2025-042-SITE05-0015,2,AST,Aspartate aminotransferase,27.68,U/L,27.68,U/L,NORMAL,1,Screening,2025-01-22
CLIN-2025-042,LB,CLIN-2025-042-SITE05-0015,3,BILI,Bilirubin total,0.61,mg/dL,0.61,mg/dL,NORMAL,1,Screening,2025-01-22
CLIN-2025-042,LB,CLIN-2025-042-SITE05-0015,4,CREAT,Creatinine,0.99,mg/dL,0.99,mg/dL,NORMAL,1,Screening,2025-01-22
CLIN-2025-042,LB,CLIN-2025-042-SITE05-0015,5,HGB,Hemoglobin,16.78,g/dL,16.78,g/dL,NORMAL,1,Screening,2025-01-22
CLIN-2025-042,LB,CLIN-2025-042-SITE05-0015,6,WBC,White blood cell count,8.25,K/uL,8.25,K/uL,NORMAL,1,Screening,2025-01-22
CLIN-2025-042,LB,CLIN-2025-042-SITE05-0015,7,PLT,Platelet count,240.72,K/uL,240.72,K/uL,NORMAL,1,Screening,2025-01-22
CLIN-2025-042,LB,CLIN-2025-042-SITE05-0015,8,GLUC,Glucose,76.32,mg/dL,76.32,mg/dL,NORMAL,1,Screening,2025-01-22
CLIN-2025-042,LB,CLIN-2025-042-SITE05-0015,1,ALT,Alanine aminotransferase,44.52,U/L,44.52,U/L,NORMAL,2,Baseline,2025-03-26
CLIN-2025-042,LB,CLIN-2025-042-SITE05-0015,2,AST,Aspartate aminotransferase,19.25,U/L,19.25,U/L,NORMAL,2,Baseline,2025-03-26
CLIN-2025-042,LB,CLIN-2025-042-SITE05-0015,3,BILI,Bilirubin total,0.67,mg/dL,0.67,mg/dL,NORMAL,2,Baseline,2025-03-26
CLIN-2025-042,LB,CLIN-2025-042-SITE05-0015,4,CREAT,Creatinine,0.26,mg/dL,0.26,mg/dL,LOW,2,Baseline,2025-03-26
CLIN-2025-042,LB,CLIN-2025-042-SITE05-0015,5,HGB,Hemoglobin,14.33,g/dL,14.33,g/dL,NORMAL,2,Baseline,2025-03-26
CLIN-2025-042,LB,CLIN-2025-042-SITE05-0015,6,WBC,White blood cell count,8.85,K/uL,8.85,K/uL,NORMAL,2,Baseline,2025-03-26
CLIN-2025-042,LB,CLIN-2025-042-SITE05-0015,7,PLT,Platelet count,66.95,K/uL,66.95,K/uL,LOW,2,Baseline,2025-03-26
CLIN-2025-042,LB,CLIN-2025-042-SITE05-0015,8,GLUC,Glucose,129.09,mg/dL,129.09,mg/dL,HIGH,2,Baseline,2025-03-26
CLIN-2025-042,LB,CLIN-2025-042-SITE05-0015,1,ALT,Alanine aminotransferase,33.19,U/L,33.19,U/L,NORMAL,3,Week 4,2025-04-23
CLIN-2025-042,LB,CLIN-2025-042-SITE05-0015,2,AST,Aspartate aminotransferase,25.17,U/L,25.17,U/L,NORMAL,3,Week 4,2025-04-23
CLIN-2025-042,LB,CLIN-2025-042-SITE05-0015,3,BILI,Bilirubin total,0.10,mg/dL,0.1,mg/dL,LOW,3,Week 4,2025-04-23
CLIN-2025-042,LB,CLIN-2025-042-SITE05-0015,4,CREAT,Creatinine,1.09,mg/dL,1.09,mg/dL,NORMAL,3,Week 4,2025-04-23
CLIN-2025-042,LB,CLIN-2025-042-SITE05-0015,5,HGB,Hemoglobin,14.09,g/dL,14.09,g/dL,NORMAL,3,Week 4,2025-04-23
CLIN-2025-042,LB,CLIN-2025-042-SITE05-0015,6,WBC,White blood cell count,10.76,K/uL,10.76,K/uL,NORMAL,3,Week 4,2025-04-23
CLIN-2025-042,LB,CLIN-2025-042-SITE05-0015,7,PLT,Platelet count,244.05,K/uL,244.05,K/uL,NORMAL,3,Week 4,2025-04-23
CLIN-2025-042,LB,CLIN-2025-042-SITE05-0015,8,GLUC,Glucose,91.43,mg/dL,91.43,mg/dL,NORMAL,3,Week 4,2025-04-23
CLIN-2025-042,LB,CLIN-2025-042-SITE05-0015,1,ALT,Alanine aminotransferase,23.21,U/L,23.21,U/L,NORMAL,4,Week 8,2025-05-21
CLIN-2025-042,LB,CLIN-2025-042-SITE05-0015,2,AST,Aspartate aminotransferase,24.88,U/L,24.88,U/L,NORMAL,4,Week 8,2025-05-21
CLIN-2025-042,LB,CLIN-2025-042-SITE05-0015,3,BILI,Bilirubin total,0.10,mg/dL,0.1,mg/dL,LOW,4,Week 8,2025-05-21
CLIN-2025-042,LB,CLIN-2025-042-SITE05-0015,4,CREAT,Creatinine,1.95,mg/dL,1.95,mg/dL,HIGH,4,Week 8,2025-05-21
CLIN-2025-042,LB,CLIN-2025-042-SITE05-0015,5,HGB,Hemoglobin,15.59,g/dL,15.59,g/dL,NORMAL,4,Week 8,2025-05-21
CLIN-2025-042,LB,CLIN-2025-042-SITE05-0015,6,WBC,White blood cell count,1.86,K/uL,1.86,K/uL,LOW,4,Week 8,2025-05-21
CLIN-2025-042,LB,CLIN-2025-042-SITE05-0015,7,PLT,Platelet count,367.75,K/uL,367.75,K/uL,NORMAL,4,Week 8,2025-05-21
CLIN-2025-042,LB,CLIN-2025-042-SITE05-0015,8,GLUC,Glucose,83.73,mg/dL,83.73,mg/dL,NORMAL,4,Week 8,2025-05-21
CLIN-2025-042,LB,CLIN-2025-042-SITE01-0016,1,ALT,Alanine aminotransferase,26.44,U/L,26.44,U/L,NORMAL,1,Screening,2025-06-07
CLIN-2025-042,LB,CLIN-2025-042-SITE01-0016,2,AST,Aspartate aminotransferase,16.35,U/L,16.35,U/L,NORMAL,1,Screening,2025-06-07
CLIN-2025-042,LB,CLIN-2025-042-SITE01-0016,3,BILI,Bilirubin total,0.62,mg/dL,0.62,mg/dL,NORMAL,1,Screening,2025-06-07
CLIN-2025-042,LB,CLIN-2025-042-SITE01-0016,4,CREAT,Creatinine,1.06,mg/dL,1.06,mg/dL,NORMAL,1,Screening,2025-06-07
CLIN-2025-042,LB,CLIN-2025-042-SITE01-0016,5,HGB,Hemoglobin,14.83,g/dL,14.83,g/dL,NORMAL,1,Screening,2025-06-07
CLIN-2025-042,LB,CLIN-2025-042-SITE01-0016,6,WBC,White blood cell count,4.82,K/uL,4.82,K/uL,NORMAL,1,Screening,2025-06-07
CLIN-2025-042,LB,CLIN-2025-042-SITE01-0016,7,PLT,Platelet count,302.81,K/uL,302.81,K/uL,NORMAL,1,Screening,2025-06-07
CLIN-2025-042,LB,CLIN-2025-042-SITE01-0016,8,GLUC,Glucose,90.09,mg/dL,90.09,mg/dL,NORMAL,1,Screening,2025-06-07
CLIN-2025-042,LB,CLIN-2025-042-SITE01-0016,1,ALT,Alanine aminotransferase,34.48,U/L,34.48,U/L,NORMAL,2,Baseline,2025-08-09
CLIN-2025-042,LB,CLIN-2025-042-SITE01-0016,2,AST,Aspartate aminotransferase,8.44,U/L,8.44,U/L,LOW,2,Baseline,2025-08-09
CLIN-2025-042,LB,CLIN-2025-042-SITE01-0016,3,BILI,Bilirubin total,1.11,mg/dL,1.11,mg/dL,NORMAL,2,Baseline,2025-08-09
CLIN-2025-042,LB,CLIN-2025-042-SITE01-0016,4,CREAT,Creatinine,0.50,mg/dL,0.5,mg/dL,LOW,2,Baseline,2025-08-09
CLIN-2025-042,LB,CLIN-2025-042-SITE01-0016,5,HGB,Hemoglobin,15.19,g/dL,15.19,g/dL,NORMAL,2,Baseline,2025-08-09
CLIN-2025-042,LB,CLIN-2025-042-SITE01-0016,6,WBC,White blood cell count,20.99,K/uL,20.99,K/uL,HIGH,2,Baseline,2025-08-09
CLIN-2025-042,LB,CLIN-2025-042-SITE01-0016,7,PLT,Platelet count,286.00,K/uL,286.0,K/uL,NORMAL,2,Baseline,2025-08-09
CLIN-2025-042,LB,CLIN-2025-042-SITE01-0016,8,GLUC,Glucose,99.36,mg/dL,99.36,mg/dL,NORMAL,2,Baseline,2025-08-09
CLIN-2025-042,LB,CLIN-2025-042-SITE01-0016,1,ALT,Alanine aminotransferase,37.44,U/L,37.44,U/L,NORMAL,3,Week 4,2025-09-06
CLIN-2025-042,LB,CLIN-2025-042-SITE01-0016,2,AST,Aspartate aminotransferase,17.96,U/L,17.96,U/L,NORMAL,3,Week 4,2025-09-06
CLIN-2025-042,LB,CLIN-2025-042-SITE01-0016,3,BILI,Bilirubin total,0.64,mg/dL,0.64,mg/dL,NORMAL,3,Week 4,2025-09-06
CLIN-2025-042,LB,CLIN-2025-042-SITE01-0016,4,CREAT,Creatinine,0.99,mg/dL,0.99,mg/dL,NORMAL,3,Week 4,2025-09-06
CLIN-2025-042,LB,CLIN-2025-042-SITE01-0016,5,HGB,Hemoglobin,17.67,g/dL,17.67,g/dL,NORMAL,3,Week 4,2025-09-06
CLIN-2025-042,LB,CLIN-2025-042-SITE01-0016,6,WBC,White blood cell count,9.10,K/uL,9.1,K/uL,NORMAL,3,Week 4,2025-09-06
CLIN-2025-042,LB,CLIN-2025-042-SITE01-0016,7,PLT,Platelet count,308.25,K/uL,308.25,K/uL,NORMAL,3,Week 4,2025-09-06
CLIN-2025-042,LB,CLIN-2025-042-SITE01-0016,8,GLUC,Glucose,73.78,mg/dL,73.78,mg/dL,NORMAL,3,Week 4,2025-09-06
CLIN-2025-042,LB,CLIN-2025-042-SITE01-0016,1,ALT,Alanine aminotransferase,21.59,U/L,21.59,U/L,NORMAL,4,Week 8,2025-10-04
CLIN-2025-042,LB,CLIN-2025-042-SITE01-0016,2,AST,Aspartate aminotransferase,37.30,U/L,37.3,U/L,NORMAL,4,Week 8,2025-10-04
CLIN-2025-042,LB,CLIN-2025-042-SITE01-0016,3,BILI,Bilirubin total,1.34,mg/dL,1.34,mg/dL,HIGH,4,Week 8,2025-10-04
CLIN-2025-042,LB,CLIN-2025-042-SITE01-0016,4,CREAT,Creatinine,0.58,mg/dL,0.58,mg/dL,LOW,4,Week 8,2025-10-04
CLIN-2025-042,LB,CLIN-2025-042-SITE01-0016,5,HGB,Hemoglobin,15.70,g/dL,15.7,g/dL,NORMAL,4,Week 8,2025-10-04
CLIN-2025-042,LB,CLIN-2025-042-SITE01-0016,6,WBC,White blood cell count,14.11,K/uL,14.11,K/uL,HIGH,4,Week 8,2025-10-04
CLIN-2025-042,LB,CLIN-2025-042-SITE01-0016,7,PLT,Platelet count,91.63,K/uL,91.63,K/uL,LOW,4,Week 8,2025-10-04
CLIN-2025-042,LB,CLIN-2025-042-SITE01-0016,8,GLUC,Glucose,88.37,mg/dL,88.37,mg/dL,NORMAL,4,Week 8,2025-10-04
CLIN-2025-042,LB,CLIN-2025-042-SITE02-0017,1,ALT,Alanine aminotransferase,3.87,U/L,3.87,U/L,LOW,1,Screening,2025-04-03
CLIN-2025-042,LB,CLIN-2025-042-SITE02-0017,2,AST,Aspartate aminotransferase,24.64,U/L,24.64,U/L,NORMAL,1,Screening,2025-04-03
CLIN-2025-042,LB,CLIN-2025-042-SITE02-0017,3,BILI,Bilirubin total,0.10,mg/dL,0.1,mg/dL,LOW,1,Screening,2025-04-03
CLIN-2025-042,LB,CLIN-2025-042-SITE02-0017,4,CREAT,Creatinine,1.16,mg/dL,1.16,mg/dL,NORMAL,1,Screening,2025-04-03
CLIN-2025-042,LB,CLIN-2025-042-SITE02-0017,5,HGB,Hemoglobin,13.95,g/dL,13.95,g/dL,NORMAL,1,Screening,2025-04-03
CLIN-2025-042,LB,CLIN-2025-042-SITE02-0017,6,WBC,White blood cell count,5.90,K/uL,5.9,K/uL,NORMAL,1,Screening,2025-04-03
CLIN-2025-042,LB,CLIN-2025-042-SITE02-0017,7,PLT,Platelet count,236.31,K/uL,236.31,K/uL,NORMAL,1,Screening,2025-04-03
CLIN-2025-042,LB,CLIN-2025-042-SITE02-0017,8,GLUC,Glucose,54.97,mg/dL,54.97,mg/dL,LOW,1,Screening,2025-04-03
CLIN-2025-042,LB,CLIN-2025-042-SITE02-0017,1,ALT,Alanine aminotransferase,46.52,U/L,46.52,U/L,NORMAL,2,Baseline,2025-06-05
CLIN-2025-042,LB,CLIN-2025-042-SITE02-0017,2,AST,Aspartate aminotransferase,11.03,U/L,11.03,U/L,NORMAL,2,Baseline,2025-06-05
CLIN-2025-042,LB,CLIN-2025-042-SITE02-0017,3,BILI,Bilirubin total,0.34,mg/dL,0.34,mg/dL,NORMAL,2,Baseline,2025-06-05
CLIN-2025-042,LB,CLIN-2025-042-SITE02-0017,4,CREAT,Creatinine,0.90,mg/dL,0.9,mg/dL,NORMAL,2,Baseline,2025-06-05
CLIN-2025-042,LB,CLIN-2025-042-SITE02-0017,5,HGB,Hemoglobin,16.29,g/dL,16.29,g/dL,NORMAL,2,Baseline,2025-06-05
CLIN-2025-042,LB,CLIN-2025-042-SITE02-0017,6,WBC,White blood cell count,7.43,K/uL,7.43,K/uL,NORMAL,2,Baseline,2025-06-05
CLIN-2025-042,LB,CLIN-2025-042-SITE02-0017,7,PLT,Platelet count,303.40,K/uL,303.4,K/uL,NORMAL,2,Baseline,2025-06-05
CLIN-2025-042,LB,CLIN-2025-042-SITE02-0017,8,GLUC,Glucose,87.87,mg/dL,87.87,mg/dL,NORMAL,2,Baseline,2025-06-05
CLIN-2025-042,LB,CLIN-2025-042-SITE02-0017,1,ALT,Alanine aminotransferase,20.93,U/L,20.93,U/L,NORMAL,3,Week 4,2025-07-03
CLIN-2025-042,LB,CLIN-2025-042-SITE02-0017,2,AST,Aspartate aminotransferase,19.76,U/L,19.76,U/L,NORMAL,3,Week 4,2025-07-03
CLIN-2025-042,LB,CLIN-2025-042-SITE02-0017,3,BILI,Bilirubin total,0.66,mg/dL,0.66,mg/dL,NORMAL,3,Week 4,2025-07-03
CLIN-2025-042,LB,CLIN-2025-042-SITE02-0017,4,CREAT,Creatinine,0.24,mg/dL,0.24,mg/dL,LOW,3,Week 4,2025-07-03
CLIN-2025-042,LB,CLIN-2025-042-SITE02-0017,5,HGB,Hemoglobin,16.08,g/dL,16.08,g/dL,NORMAL,3,Week 4,2025-07-03
CLIN-2025-042,LB,CLIN-2025-042-SITE02-0017,6,WBC,White blood cell count,8.31,K/uL,8.31,K/uL,NORMAL,3,Week 4,2025-07-03
CLIN-2025-042,LB,CLIN-2025-042-SITE02-0017,7,PLT,Platelet count,176.28,K/uL,176.28,K/uL,NORMAL,3,Week 4,2025-07-03
CLIN-2025-042,LB,CLIN-2025-042-SITE02-0017,8,GLUC,Glucose,75.44,mg/dL,75.44,mg/dL,NORMAL,3,Week 4,2025-07-03
CLIN-2025-042,LB,CLIN-2025-042-SITE02-0017,1,ALT,Alanine aminotransferase,23.67,U/L,23.67,U/L,NORMAL,4,Week 8,2025-07-31
CLIN-2025-042,LB,CLIN-2025-042-SITE02-0017,2,AST,Aspartate aminotransferase,21.97,U/L,21.97,U/L,NORMAL,4,Week 8,2025-07-31
CLIN-2025-042,LB,CLIN-2025-042-SITE02-0017,3,BILI,Bilirubin total,0.44,mg/dL,0.44,mg/dL,NORMAL,4,Week 8,2025-07-31
CLIN-2025-042,LB,CLIN-2025-042-SITE02-0017,4,CREAT,Creatinine,0.76,mg/dL,0.76,mg/dL,NORMAL,4,Week 8,2025-07-31
CLIN-2025-042,LB,CLIN-2025-042-SITE02-0017,5,HGB,Hemoglobin,14.60,g/dL,14.6,g/dL,NORMAL,4,Week 8,2025-07-31
CLIN-2025-042,LB,CLIN-2025-042-SITE02-0017,6,WBC,White blood cell count,6.07,K/uL,6.07,K/uL,NORMAL,4,Week 8,2025-07-31
CLIN-2025-042,LB,CLIN-2025-042-SITE02-0017,7,PLT,Platelet count,217.62,K/uL,217.62,K/uL,NORMAL,4,Week 8,2025-07-31
CLIN-2025-042,LB,CLIN-2025-042-SITE02-0017,8,GLUC,Glucose,92.66,mg/dL,92.66,mg/dL,NORMAL,4,Week 8,2025-07-31
CLIN-2025-042,LB,CLIN-2025-042-SITE03-0018,1,ALT,Alanine aminotransferase,45.68,U/L,45.68,U/L,NORMAL,1,Screening,2025-03-23
CLIN-2025-042,LB,CLIN-2025-042-SITE03-0018,2,AST,Aspartate aminotransferase,4.99,U/L,4.99,U/L,LOW,1,Screening,2025-03-23
CLIN-2025-042,LB,CLIN-2025-042-SITE03-0018,3,BILI,Bilirubin total,0.81,mg/dL,0.81,mg/dL,NORMAL,1,Screening,2025-03-23
CLIN-2025-042,LB,CLIN-2025-042-SITE03-0018,4,CREAT,Creatinine,0.82,mg/dL,0.82,mg/dL,NORMAL,1,Screening,2025-03-23
CLIN-2025-042,LB,CLIN-2025-042-SITE03-0018,5,HGB,Hemoglobin,15.71,g/dL,15.71,g/dL,NORMAL,1,Screening,2025-03-23
CLIN-2025-042,LB,CLIN-2025-042-SITE03-0018,6,WBC,White blood cell count,17.58,K/uL,17.58,K/uL,HIGH,1,Screening,2025-03-23
CLIN-2025-042,LB,CLIN-2025-042-SITE03-0018,7,PLT,Platelet count,313.77,K/uL,313.77,K/uL,NORMAL,1,Screening,2025-03-23
CLIN-2025-042,LB,CLIN-2025-042-SITE03-0018,8,GLUC,Glucose,36.84,mg/dL,36.84,mg/dL,LOW,1,Screening,2025-03-23
CLIN-2025-042,LB,CLIN-2025-042-SITE03-0018,1,ALT,Alanine aminotransferase,6.23,U/L,6.23,U/L,LOW,2,Baseline,2025-05-25
CLIN-2025-042,LB,CLIN-2025-042-SITE03-0018,2,AST,Aspartate aminotransferase,21.35,U/L,21.35,U/L,NORMAL,2,Baseline,2025-05-25
CLIN-2025-042,LB,CLIN-2025-042-SITE03-0018,3,BILI,Bilirubin total,1.10,mg/dL,1.1,mg/dL,NORMAL,2,Baseline,2025-05-25
CLIN-2025-042,LB,CLIN-2025-042-SITE03-0018,4,CREAT,Creatinine,1.09,mg/dL,1.09,mg/dL,NORMAL,2,Baseline,2025-05-25
CLIN-2025-042,LB,CLIN-2025-042-SITE03-0018,5,HGB,Hemoglobin,15.66,g/dL,15.66,g/dL,NORMAL,2,Baseline,2025-05-25
CLIN-2025-042,LB,CLIN-2025-042-SITE03-0018,6,WBC,White blood cell count,2.86,K/uL,2.86,K/uL,LOW,2,Baseline,2025-05-25
CLIN-2025-042,LB,CLIN-2025-042-SITE03-0018,7,PLT,Platelet count,236.40,K/uL,236.4,K/uL,NORMAL,2,Baseline,2025-05-25
CLIN-2025-042,LB,CLIN-2025-042-SITE03-0018,8,GLUC,Glucose,26.58,mg/dL,26.58,mg/dL,LOW,2,Baseline,2025-05-25
CLIN-2025-042,LB,CLIN-2025-042-SITE03-0018,1,ALT,Alanine aminotransferase,77.04,U/L,77.04,U/L,HIGH,3,Week 4,2025-06-22
CLIN-2025-042,LB,CLIN-2025-042-SITE03-0018,2,AST,Aspartate aminotransferase,17.31,U/L,17.31,U/L,NORMAL,3,Week 4,2025-06-22
CLIN-2025-042,LB,CLIN-2025-042-SITE03-0018,3,BILI,Bilirubin total,0.72,mg/dL,0.72,mg/dL,NORMAL,3,Week 4,2025-06-22
CLIN-2025-042,LB,CLIN-2025-042-SITE03-0018,4,CREAT,Creatinine,0.77,mg/dL,0.77,mg/dL,NORMAL,3,Week 4,2025-06-22
CLIN-2025-042,LB,CLIN-2025-042-SITE03-0018,5,HGB,Hemoglobin,17.62,g/dL,17.62,g/dL,NORMAL,3,Week 4,2025-06-22
CLIN-2025-042,LB,CLIN-2025-042-SITE03-0018,6,WBC,White blood cell count,2.32,K/uL,2.32,K/uL,LOW,3,Week 4,2025-06-22
CLIN-2025-042,LB,CLIN-2025-042-SITE03-0018,7,PLT,Platelet count,235.77,K/uL,235.77,K/uL,NORMAL,3,Week 4,2025-06-22
CLIN-2025-042,LB,CLIN-2025-042-SITE03-0018,8,GLUC,Glucose,90.42,mg/dL,90.42,mg/dL,NORMAL,3,Week 4,2025-06-22
CLIN-2025-042,LB,CLIN-2025-042-SITE03-0018,1,ALT,Alanine aminotransferase,6.23,U/L,6.23,U/L,LOW,4,Week 8,2025-07-20
CLIN-2025-042,LB,CLIN-2025-042-SITE03-0018,2,AST,Aspartate aminotransferase,26.89,U/L,26.89,U/L,NORMAL,4,Week 8,2025-07-20
CLIN-2025-042,LB,CLIN-2025-042-SITE03-0018,3,BILI,Bilirubin total,0.88,mg/dL,0.88,mg/dL,NORMAL,4,Week 8,2025-07-20
CLIN-2025-042,LB,CLIN-2025-042-SITE03-0018,4,CREAT,Creatinine,1.30,mg/dL,1.3,mg/dL,NORMAL,4,Week 8,2025-07-20
CLIN-2025-042,LB,CLIN-2025-042-SITE03-0018,5,HGB,Hemoglobin,14.37,g/dL,14.37,g/dL,NORMAL,4,Week 8,2025-07-20
CLIN-2025-042,LB,CLIN-2025-042-SITE03-0018,6,WBC,White blood cell count,7.67,K/uL,7.67,K/uL,NORMAL,4,Week 8,2025-07-20
CLIN-2025-042,LB,CLIN-2025-042-SITE03-0018,7,PLT,Platelet count,549.80,K/uL,549.8,K/uL,HIGH,4,Week 8,2025-07-20
CLIN-2025-042,LB,CLIN-2025-042-SITE03-0018,8,GLUC,Glucose,97.31,mg/dL,97.31,mg/dL,NORMAL,4,Week 8,2025-07-20
CLIN-2025-042,LB,CLIN-2025-042-SITE04-0019,1,ALT,Alanine aminotransferase,12.70,U/L,12.7,U/L,NORMAL,1,Screening,2025-01-10
CLIN-2025-042,LB,CLIN-2025-042-SITE04-0019,2,AST,Aspartate aminotransferase,35.88,U/L,35.88,U/L,NORMAL,1,Screening,2025-01-10
CLIN-2025-042,LB,CLIN-2025-042-SITE04-0019,3,BILI,Bilirubin total,0.11,mg/dL,0.11,mg/dL,NORMAL,1,Screening,2025-01-10
CLIN-2025-042,LB,CLIN-2025-042-SITE04-0019,4,CREAT,Creatinine,0.49,mg/dL,0.49,mg/dL,LOW,1,Screening,2025-01-10
CLIN-2025-042,LB,CLIN-2025-042-SITE04-0019,5,HGB,Hemoglobin,14.85,g/dL,14.85,g/dL,NORMAL,1,Screening,2025-01-10
CLIN-2025-042,LB,CLIN-2025-042-SITE04-0019,6,WBC,White blood cell count,7.58,K/uL,7.58,K/uL,NORMAL,1,Screening,2025-01-10
CLIN-2025-042,LB,CLIN-2025-042-SITE04-0019,7,PLT,Platelet count,370.11,K/uL,370.11,K/uL,NORMAL,1,Screening,2025-01-10
CLIN-2025-042,LB,CLIN-2025-042-SITE04-0019,8,GLUC,Glucose,93.80,mg/dL,93.8,mg/dL,NORMAL,1,Screening,2025-01-10
CLIN-2025-042,LB,CLIN-2025-042-SITE04-0019,1,ALT,Alanine aminotransferase,14.25,U/L,14.25,U/L,NORMAL,2,Baseline,2025-03-14
CLIN-2025-042,LB,CLIN-2025-042-SITE04-0019,2,AST,Aspartate aminotransferase,35.86,U/L,35.86,U/L,NORMAL,2,Baseline,2025-03-14
CLIN-2025-042,LB,CLIN-2025-042-SITE04-0019,3,BILI,Bilirubin total,1.66,mg/dL,1.66,mg/dL,HIGH,2,Baseline,2025-03-14
CLIN-2025-042,LB,CLIN-2025-042-SITE04-0019,4,CREAT,Creatinine,1.33,mg/dL,1.33,mg/dL,HIGH,2,Baseline,2025-03-14
CLIN-2025-042,LB,CLIN-2025-042-SITE04-0019,5,HGB,Hemoglobin,13.90,g/dL,13.9,g/dL,NORMAL,2,Baseline,2025-03-14
CLIN-2025-042,LB,CLIN-2025-042-SITE04-0019,6,WBC,White blood cell count,7.02,K/uL,7.02,K/uL,NORMAL,2,Baseline,2025-03-14
CLIN-2025-042,LB,CLIN-2025-042-SITE04-0019,7,PLT,Platelet count,120.45,K/uL,120.45,K/uL,NORMAL,2,Baseline,2025-03-14
CLIN-2025-042,LB,CLIN-2025-042-SITE04-0019,8,GLUC,Glucose,23.82,mg/dL,23.82,mg/dL,LOW,2,Baseline,2025-03-14
CLIN-2025-042,LB,CLIN-2025-042-SITE04-0019,1,ALT,Alanine aminotransferase,49.94,U/L,49.94,U/L,NORMAL,3,Week 4,2025-04-11
CLIN-2025-042,LB,CLIN-2025-042-SITE04-0019,2,AST,Aspartate aminotransferase,22.96,U/L,22.96,U/L,NORMAL,3,Week 4,2025-04-11
CLIN-2025-042,LB,CLIN-2025-042-SITE04-0019,3,BILI,Bilirubin total,0.42,mg/dL,0.42,mg/dL,NORMAL,3,Week 4,2025-04-11
CLIN-2025-042,LB,CLIN-2025-042-SITE04-0019,4,CREAT,Creatinine,0.93,mg/dL,0.93,mg/dL,NORMAL,3,Week 4,2025-04-11
CLIN-2025-042,LB,CLIN-2025-042-SITE04-0019,5,HGB,Hemoglobin,15.90,g/dL,15.9,g/dL,NORMAL,3,Week 4,2025-04-11
CLIN-2025-042,LB,CLIN-2025-042-SITE04-0019,6,WBC,White blood cell count,3.82,K/uL,3.82,K/uL,LOW,3,Week 4,2025-04-11
CLIN-2025-042,LB,CLIN-2025-042-SITE04-0019,7,PLT,Platelet count,490.84,K/uL,490.84,K/uL,HIGH,3,Week 4,2025-04-11
CLIN-2025-042,LB,CLIN-2025-042-SITE04-0019,8,GLUC,Glucose,74.09,mg/dL,74.09,mg/dL,NORMAL,3,Week 4,2025-04-11
CLIN-2025-042,LB,CLIN-2025-042-SITE04-0019,1,ALT,Alanine aminotransferase,47.82,U/L,47.82,U/L,NORMAL,4,Week 8,2025-05-09
CLIN-2025-042,LB,CLIN-2025-042-SITE04-0019,2,AST,Aspartate aminotransferase,21.03,U/L,21.03,U/L,NORMAL,4,Week 8,2025-05-09
CLIN-2025-042,LB,CLIN-2025-042-SITE04-0019,3,BILI,Bilirubin total,0.32,mg/dL,0.32,mg/dL,NORMAL,4,Week 8,2025-05-09
CLIN-2025-042,LB,CLIN-2025-042-SITE04-0019,4,CREAT,Creatinine,0.88,mg/dL,0.88,mg/dL,NORMAL,4,Week 8,2025-05-09
CLIN-2025-042,LB,CLIN-2025-042-SITE04-0019,5,HGB,Hemoglobin,16.18,g/dL,16.18,g/dL,NORMAL,4,Week 8,2025-05-09
CLIN-2025-042,LB,CLIN-2025-042-SITE04-0019,6,WBC,White blood cell count,7.38,K/uL,7.38,K/uL,NORMAL,4,Week 8,2025-05-09
CLIN-2025-042,LB,CLIN-2025-042-SITE04-0019,7,PLT,Platelet count,267.69,K/uL,267.69,K/uL,NORMAL,4,Week 8,2025-05-09
CLIN-2025-042,LB,CLIN-2025-042-SITE04-0019,8,GLUC,Glucose,70.34,mg/dL,70.34,mg/dL,NORMAL,4,Week 8,2025-05-09
CLIN-2025-042,LB,CLIN-2025-042-SITE05-0020,1,ALT,Alanine aminotransferase,36.75,U/L,36.75,U/L,NORMAL,1,Screening,2025-03-07
CLIN-2025-042,LB,CLIN-2025-042-SITE05-0020,2,AST,Aspartate aminotransferase,10.67,U/L,10.67,U/L,NORMAL,1,Screening,2025-03-07
CLIN-2025-042,LB,CLIN-2025-042-SITE05-0020,3,BILI,Bilirubin total,0.61,mg/dL,0.61,mg/dL,NORMAL,1,Screening,2025-03-07
CLIN-2025-042,LB,CLIN-2025-042-SITE05-0020,4,CREAT,Creatinine,1.29,mg/dL,1.29,mg/dL,NORMAL,1,Screening,2025-03-07
CLIN-2025-042,LB,CLIN-2025-042-SITE05-0020,5,HGB,Hemoglobin,7.20,g/dL,7.2,g/dL,LOW,1,Screening,2025-03-07
CLIN-2025-042,LB,CLIN-2025-042-SITE05-0020,6,WBC,White blood cell count,5.74,K/uL,5.74,K/uL,NORMAL,1,Screening,2025-03-07
CLIN-2025-042,LB,CLIN-2025-042-SITE05-0020,7,PLT,Platelet count,107.88,K/uL,107.88,K/uL,LOW,1,Screening,2025-03-07
CLIN-2025-042,LB,CLIN-2025-042-SITE05-0020,8,GLUC,Glucose,62.77,mg/dL,62.77,mg/dL,LOW,1,Screening,2025-03-07
CLIN-2025-042,LB,CLIN-2025-042-SITE05-0020,1,ALT,Alanine aminotransferase,16.61,U/L,16.61,U/L,NORMAL,2,Baseline,2025-05-09
CLIN-2025-042,LB,CLIN-2025-042-SITE05-0020,2,AST,Aspartate aminotransferase,3.61,U/L,3.61,U/L,LOW,2,Baseline,2025-05-09
CLIN-2025-042,LB,CLIN-2025-042-SITE05-0020,3,BILI,Bilirubin total,0.46,mg/dL,0.46,mg/dL,NORMAL,2,Baseline,2025-05-09
CLIN-2025-042,LB,CLIN-2025-042-SITE05-0020,4,CREAT,Creatinine,0.44,mg/dL,0.44,mg/dL,LOW,2,Baseline,2025-05-09
CLIN-2025-042,LB,CLIN-2025-042-SITE05-0020,5,HGB,Hemoglobin,16.72,g/dL,16.72,g/dL,NORMAL,2,Baseline,2025-05-09
CLIN-2025-042,LB,CLIN-2025-042-SITE05-0020,6,WBC,White blood cell count,4.88,K/uL,4.88,K/uL,NORMAL,2,Baseline,2025-05-09
CLIN-2025-042,LB,CLIN-2025-042-SITE05-0020,7,PLT,Platelet count,257.43,K/uL,257.43,K/uL,NORMAL,2,Baseline,2025-05-09
CLIN-2025-042,LB,CLIN-2025-042-SITE05-0020,8,GLUC,Glucose,84.55,mg/dL,84.55,mg/dL,NORMAL,2,Baseline,2025-05-09
CLIN-2025-042,LB,CLIN-2025-042-SITE05-0020,1,ALT,Alanine aminotransferase,34.43,U/L,34.43,U/L,NORMAL,3,Week 4,2025-06-06
CLIN-2025-042,LB,CLIN-2025-042-SITE05-0020,2,AST,Aspartate aminotransferase,19.52,U/L,19.52,U/L,NORMAL,3,Week 4,2025-06-06
CLIN-2025-042,LB,CLIN-2025-042-SITE05-0020,3,BILI,Bilirubin total,0.39,mg/dL,0.39,mg/dL,NORMAL,3,Week 4,2025-06-06
CLIN-2025-042,LB,CLIN-2025-042-SITE05-0020,4,CREAT,Creatinine,1.13,mg/dL,1.13,mg/dL,NORMAL,3,Week 4,2025-06-06
CLIN-2025-042,LB,CLIN-2025-042-SITE05-0020,5,HGB,Hemoglobin,14.14,g/dL,14.14,g/dL,NORMAL,3,Week 4,2025-06-06
CLIN-2025-042,LB,CLIN-2025-042-SITE05-0020,6,WBC,White blood cell count,7.14,K/uL,7.14,K/uL,NORMAL,3,Week 4,2025-06-06
CLIN-2025-042,LB,CLIN-2025-042-SITE05-0020,7,PLT,Platelet count,334.00,K/uL,334.0,K/uL,NORMAL,3,Week 4,2025-06-06
CLIN-2025-042,LB,CLIN-2025-042-SITE05-0020,8,GLUC,Glucose,136.05,mg/dL,136.05,mg/dL,HIGH,3,Week 4,2025-06-06
CLIN-2025-042,LB,CLIN-2025-042-SITE05-0020,1,ALT,Alanine aminotransferase,4.18,U/L,4.18,U/L,LOW,4,Week 8,2025-07-04
CLIN-2025-042,LB,CLIN-2025-042-SITE05-0020,2,AST,Aspartate aminotransferase,68.86,U/L,68.86,U/L,HIGH,4,Week 8,2025-07-04
CLIN-2025-042,LB,CLIN-2025-042-SITE05-0020,3,BILI,Bilirubin total,0.56,mg/dL,0.56,mg/dL,NORMAL,4,Week 8,2025-07-04
CLIN-2025-042,LB,CLIN-2025-042-SITE05-0020,4,CREAT,Creatinine,1.17,mg/dL,1.17,mg/dL,NORMAL,4,Week 8,2025-07-04
CLIN-2025-042,LB,CLIN-2025-042-SITE05-0020,5,HGB,Hemoglobin,8.52,g/dL,8.52,g/dL,LOW,4,Week 8,2025-07-04
CLIN-2025-042,LB,CLIN-2025-042-SITE05-0020,6,WBC,White blood cell count,7.55,K/uL,7.55,K/uL,NORMAL,4,Week 8,2025-07-04
CLIN-2025-042,LB,CLIN-2025-042-SITE05-0020,7,PLT,Platelet count,544.74,K/uL,544.74,K/uL,HIGH,4,Week 8,2025-07-04
CLIN-2025-042,LB,CLIN-2025-042-SITE05-0020,8,GLUC,Glucose,39.00,mg/dL,39.0,mg/dL,LOW,4,Week 8,2025-07-04
CLIN-2025-042,LB,CLIN-2025-042-SITE01-0021,1,ALT,Alanine aminotransferase,4.49,U/L,4.49,U/L,LOW,1,Screening,2025-02-15
CLIN-2025-042,LB,CLIN-2025-042-SITE01-0021,2,AST,Aspartate aminotransferase,29.49,U/L,29.49,U/L,NORMAL,1,Screening,2025-02-15
CLIN-2025-042,LB,CLIN-2025-042-SITE01-0021,3,BILI,Bilirubin total,1.23,mg/dL,1.23,mg/dL,NORMAL,1,Screening,2025-02-15
CLIN-2025-042,LB,CLIN-2025-042-SITE01-0021,4,CREAT,Creatinine,1.77,mg/dL,1.77,mg/dL,HIGH,1,Screening,2025-02-15
CLIN-2025-042,LB,CLIN-2025-042-SITE01-0021,5,HGB,Hemoglobin,25.20,g/dL,25.2,g/dL,HIGH,1,Screening,2025-02-15
CLIN-2025-042,LB,CLIN-2025-042-SITE01-0021,6,WBC,White blood cell count,10.25,K/uL,10.25,K/uL,NORMAL,1,Screening,2025-02-15
CLIN-2025-042,LB,CLIN-2025-042-SITE01-0021,7,PLT,Platelet count,234.32,K/uL,234.32,K/uL,NORMAL,1,Screening,2025-02-15
CLIN-2025-042,LB,CLIN-2025-042-SITE01-0021,8,GLUC,Glucose,81.66,mg/dL,81.66,mg/dL,NORMAL,1,Screening,2025-02-15
CLIN-2025-042,LB,CLIN-2025-042-SITE01-0021,1,ALT,Alanine aminotransferase,55.56,U/L,55.56,U/L,NORMAL,2,Baseline,2025-04-19
CLIN-2025-042,LB,CLIN-2025-042-SITE01-0021,2,AST,Aspartate aminotransferase,28.04,U/L,28.04,U/L,NORMAL,2,Baseline,2025-04-19
CLIN-2025-042,LB,CLIN-2025-042-SITE01-0021,3,BILI,Bilirubin total,0.77,mg/dL,0.77,mg/dL,NORMAL,2,Baseline,2025-04-19
CLIN-2025-042,LB,CLIN-2025-042-SITE01-0021,4,CREAT,Creatinine,0.81,mg/dL,0.81,mg/dL,NORMAL,2,Baseline,2025-04-19
CLIN-2025-042,LB,CLIN-2025-042-SITE01-0021,5,HGB,Hemoglobin,16.14,g/dL,16.14,g/dL,NORMAL,2,Baseline,2025-04-19
CLIN-2025-042,LB,CLIN-2025-042-SITE01-0021,6,WBC,White blood cell count,5.93,K/uL,5.93,K/uL,NORMAL,2,Baseline,2025-04-19
CLIN-2025-042,LB,CLIN-2025-042-SITE01-0021,7,PLT,Platelet count,255.93,K/uL,255.93,K/uL,NORMAL,2,Baseline,2025-04-19
CLIN-2025-042,LB,CLIN-2025-042-SITE01-0021,8,GLUC,Glucose,82.05,mg/dL,82.05,mg/dL,NORMAL,2,Baseline,2025-04-19
CLIN-2025-042,LB,CLIN-2025-042-SITE01-0021,1,ALT,Alanine aminotransferase,3.24,U/L,3.24,U/L,LOW,3,Week 4,2025-05-17
CLIN-2025-042,LB,CLIN-2025-042-SITE01-0021,2,AST,Aspartate aminotransferase,30.39,U/L,30.39,U/L,NORMAL,3,Week 4,2025-05-17
CLIN-2025-042,LB,CLIN-2025-042-SITE01-0021,3,BILI,Bilirubin total,0.10,mg/dL,0.1,mg/dL,LOW,3,Week 4,2025-05-17
CLIN-2025-042,LB,CLIN-2025-042-SITE01-0021,4,CREAT,Creatinine,0.86,mg/dL,0.86,mg/dL,NORMAL,3,Week 4,2025-05-17
CLIN-2025-042,LB,CLIN-2025-042-SITE01-0021,5,HGB,Hemoglobin,15.20,g/dL,15.2,g/dL,NORMAL,3,Week 4,2025-05-17
CLIN-2025-042,LB,CLIN-2025-042-SITE01-0021,6,WBC,White blood cell count,9.75,K/uL,9.75,K/uL,NORMAL,3,Week 4,2025-05-17
CLIN-2025-042,LB,CLIN-2025-042-SITE01-0021,7,PLT,Platelet count,211.89,K/uL,211.89,K/uL,NORMAL,3,Week 4,2025-05-17
CLIN-2025-042,LB,CLIN-2025-042-SITE01-0021,8,GLUC,Glucose,86.38,mg/dL,86.38,mg/dL,NORMAL,3,Week 4,2025-05-17
CLIN-2025-042,LB,CLIN-2025-042-SITE01-0021,1,ALT,Alanine aminotransferase,54.99,U/L,54.99,U/L,NORMAL,4,Week 8,2025-06-14
CLIN-2025-042,LB,CLIN-2025-042-SITE01-0021,2,AST,Aspartate aminotransferase,24.60,U/L,24.6,U/L,NORMAL,4,Week 8,2025-06-14
CLIN-2025-042,LB,CLIN-2025-042-SITE01-0021,3,BILI,Bilirubin total,0.33,mg/dL,0.33,mg/dL,NORMAL,4,Week 8,2025-06-14
CLIN-2025-042,LB,CLIN-2025-042-SITE01-0021,4,CREAT,Creatinine,1.15,mg/dL,1.15,mg/dL,NORMAL,4,Week 8,2025-06-14
CLIN-2025-042,LB,CLIN-2025-042-SITE01-0021,5,HGB,Hemoglobin,15.94,g/dL,15.94,g/dL,NORMAL,4,Week 8,2025-06-14
CLIN-2025-042,LB,CLIN-2025-042-SITE01-0021,6,WBC,White blood cell count,6.66,K/uL,6.66,K/uL,NORMAL,4,Week 8,2025-06-14
CLIN-2025-042,LB,CLIN-2025-042-SITE01-0021,7,PLT,Platelet count,288.14,K/uL,288.14,K/uL,NORMAL,4,Week 8,2025-06-14
CLIN-2025-042,LB,CLIN-2025-042-SITE01-0021,8,GLUC,Glucose,94.70,mg/dL,94.7,mg/dL,NORMAL,4,Week 8,2025-06-14
CLIN-2025-042,LB,CLIN-2025-042-SITE02-0022,1,ALT,Alanine aminotransferase,30.75,U/L,30.75,U/L,NORMAL,1,Screening,2025-03-01
CLIN-2025-042,LB,CLIN-2025-042-SITE02-0022,2,AST,Aspartate aminotransferase,28.15,U/L,28.15,U/L,NORMAL,1,Screening,2025-03-01
CLIN-2025-042,LB,CLIN-2025-042-SITE02-0022,3,BILI,Bilirubin total,0.41,mg/dL,0.41,mg/dL,NORMAL,1,Screening,2025-03-01
CLIN-2025-042,LB,CLIN-2025-042-SITE02-0022,4,CREAT,Creatinine,1.47,mg/dL,1.47,mg/dL,HIGH,1,Screening,2025-03-01
CLIN-2025-042,LB,CLIN-2025-042-SITE02-0022,5,HGB,Hemoglobin,13.69,g/dL,13.69,g/dL,NORMAL,1,Screening,2025-03-01
CLIN-2025-042,LB,CLIN-2025-042-SITE02-0022,6,WBC,White blood cell count,8.28,K/uL,8.28,K/uL,NORMAL,1,Screening,2025-03-01
CLIN-2025-042,LB,CLIN-2025-042-SITE02-0022,7,PLT,Platelet count,266.34,K/uL,266.34,K/uL,NORMAL,1,Screening,2025-03-01
CLIN-2025-042,LB,CLIN-2025-042-SITE02-0022,8,GLUC,Glucose,95.49,mg/dL,95.49,mg/dL,NORMAL,1,Screening,2025-03-01
CLIN-2025-042,LB,CLIN-2025-042-SITE02-0022,1,ALT,Alanine aminotransferase,34.66,U/L,34.66,U/L,NORMAL,2,Baseline,2025-05-03
CLIN-2025-042,LB,CLIN-2025-042-SITE02-0022,2,AST,Aspartate aminotransferase,25.65,U/L,25.65,U/L,NORMAL,2,Baseline,2025-05-03
CLIN-2025-042,LB,CLIN-2025-042-SITE02-0022,3,BILI,Bilirubin total,0.10,mg/dL,0.1,mg/dL,LOW,2,Baseline,2025-05-03
CLIN-2025-042,LB,CLIN-2025-042-SITE02-0022,4,CREAT,Creatinine,0.75,mg/dL,0.75,mg/dL,NORMAL,2,Baseline,2025-05-03
CLIN-2025-042,LB,CLIN-2025-042-SITE02-0022,5,HGB,Hemoglobin,15.15,g/dL,15.15,g/dL,NORMAL,2,Baseline,2025-05-03
CLIN-2025-042,LB,CLIN-2025-042-SITE02-0022,6,WBC,White blood cell count,9.83,K/uL,9.83,K/uL,NORMAL,2,Baseline,2025-05-03
CLIN-2025-042,LB,CLIN-2025-042-SITE02-0022,7,PLT,Platelet count,166.92,K/uL,166.92,K/uL,NORMAL,2,Baseline,2025-05-03
CLIN-2025-042,LB,CLIN-2025-042-SITE02-0022,8,GLUC,Glucose,86.06,mg/dL,86.06,mg/dL,NORMAL,2,Baseline,2025-05-03
CLIN-2025-042,LB,CLIN-2025-042-SITE02-0022,1,ALT,Alanine aminotransferase,43.50,U/L,43.5,U/L,NORMAL,3,Week 4,2025-05-31
CLIN-2025-042,LB,CLIN-2025-042-SITE02-0022,2,AST,Aspartate aminotransferase,40.39,U/L,40.39,U/L,HIGH,3,Week 4,2025-05-31
CLIN-2025-042,LB,CLIN-2025-042-SITE02-0022,3,BILI,Bilirubin total,1.33,mg/dL,1.33,mg/dL,NORMAL,3,Week 4,2025-05-31
CLIN-2025-042,LB,CLIN-2025-042-SITE02-0022,4,CREAT,Creatinine,1.10,mg/dL,1.1,mg/dL,NORMAL,3,Week 4,2025-05-31
CLIN-2025-042,LB,CLIN-2025-042-SITE02-0022,5,HGB,Hemoglobin,15.73,g/dL,15.73,g/dL,NORMAL,3,Week 4,2025-05-31
CLIN-2025-042,LB,CLIN-2025-042-SITE02-0022,6,WBC,White blood cell count,6.29,K/uL,6.29,K/uL,NORMAL,3,Week 4,2025-05-31
CLIN-2025-042,LB,CLIN-2025-042-SITE02-0022,7,PLT,Platelet count,311.70,K/uL,311.7,K/uL,NORMAL,3,Week 4,2025-05-31
CLIN-2025-042,LB,CLIN-2025-042-SITE02-0022,8,GLUC,Glucose,83.10,mg/dL,83.1,mg/dL,NORMAL,3,Week 4,2025-05-31
CLIN-2025-042,LB,CLIN-2025-042-SITE02-0022,1,ALT,Alanine aminotransferase,107.54,U/L,107.54,U/L,HIGH,4,Week 8,2025-06-28
CLIN-2025-042,LB,CLIN-2025-042-SITE02-0022,2,AST,Aspartate aminotransferase,24.70,U/L,24.7,U/L,NORMAL,4,Week 8,2025-06-28
CLIN-2025-042,LB,CLIN-2025-042-SITE02-0022,3,BILI,Bilirubin total,0.68,mg/dL,0.68,mg/dL,NORMAL,4,Week 8,2025-06-28
CLIN-2025-042,LB,CLIN-2025-042-SITE02-0022,4,CREAT,Creatinine,1.07,mg/dL,1.07,mg/dL,NORMAL,4,Week 8,2025-06-28
CLIN-2025-042,LB,CLIN-2025-042-SITE02-0022,5,HGB,Hemoglobin,14.76,g/dL,14.76,g/dL,NORMAL,4,Week 8,2025-06-28
CLIN-2025-042,LB,CLIN-2025-042-SITE02-0022,6,WBC,White blood cell count,3.46,K/uL,3.46,K/uL,LOW,4,Week 8,2025-06-28
CLIN-2025-042,LB,CLIN-2025-042-SITE02-0022,7,PLT,Platelet count,480.12,K/uL,480.12,K/uL,HIGH,4,Week 8,2025-06-28
CLIN-2025-042,LB,CLIN-2025-042-SITE02-0022,8,GLUC,Glucose,75.77,mg/dL,75.77,mg/dL,NORMAL,4,Week 8,2025-06-28
CLIN-2025-042,LB,CLIN-2025-042-SITE03-0023,1,ALT,Alanine aminotransferase,43.87,U/L,43.87,U/L,NORMAL,1,Screening,2025-05-10
CLIN-2025-042,LB,CLIN-2025-042-SITE03-0023,2,AST,Aspartate aminotransferase,26.38,U/L,26.38,U/L,NORMAL,1,Screening,2025-05-10
CLIN-2025-042,LB,CLIN-2025-042-SITE03-0023,3,BILI,Bilirubin total,0.50,mg/dL,0.5,mg/dL,NORMAL,1,Screening,2025-05-10
CLIN-2025-042,LB,CLIN-2025-042-SITE03-0023,4,CREAT,Creatinine,0.96,mg/dL,0.96,mg/dL,NORMAL,1,Screening,2025-05-10
CLIN-2025-042,LB,CLIN-2025-042-SITE03-0023,5,HGB,Hemoglobin,16.09,g/dL,16.09,g/dL,NORMAL,1,Screening,2025-05-10
CLIN-2025-042,LB,CLIN-2025-042-SITE03-0023,6,WBC,White blood cell count,6.76,K/uL,6.76,K/uL,NORMAL,1,Screening,2025-05-10
CLIN-2025-042,LB,CLIN-2025-042-SITE03-0023,7,PLT,Platelet count,306.89,K/uL,306.89,K/uL,NORMAL,1,Screening,2025-05-10
CLIN-2025-042,LB,CLIN-2025-042-SITE03-0023,8,GLUC,Glucose,72.06,mg/dL,72.06,mg/dL,NORMAL,1,Screening,2025-05-10
CLIN-2025-042,LB,CLIN-2025-042-SITE03-0023,1,ALT,Alanine aminotransferase,31.46,U/L,31.46,U/L,NORMAL,2,Baseline,2025-07-12
CLIN-2025-042,LB,CLIN-2025-042-SITE03-0023,2,AST,Aspartate aminotransferase,40.79,U/L,40.79,U/L,NORMAL,2,Baseline,2025-07-12
CLIN-2025-042,LB,CLIN-2025-042-SITE03-0023,3,BILI,Bilirubin total,1.00,mg/dL,1.0,mg/dL,NORMAL,2,Baseline,2025-07-12
CLIN-2025-042,LB,CLIN-2025-042-SITE03-0023,4,CREAT,Creatinine,0.97,mg/dL,0.97,mg/dL,NORMAL,2,Baseline,2025-07-12
CLIN-2025-042,LB,CLIN-2025-042-SITE03-0023,5,HGB,Hemoglobin,20.40,g/dL,20.4,g/dL,HIGH,2,Baseline,2025-07-12
CLIN-2025-042,LB,CLIN-2025-042-SITE03-0023,6,WBC,White blood cell count,19.85,K/uL,19.85,K/uL,HIGH,2,Baseline,2025-07-12
CLIN-2025-042,LB,CLIN-2025-042-SITE03-0023,7,PLT,Platelet count,267.19,K/uL,267.19,K/uL,NORMAL,2,Baseline,2025-07-12
CLIN-2025-042,LB,CLIN-2025-042-SITE03-0023,8,GLUC,Glucose,77.22,mg/dL,77.22,mg/dL,NORMAL,2,Baseline,2025-07-12
CLIN-2025-042,LB,CLIN-2025-042-SITE03-0023,1,ALT,Alanine aminotransferase,3.85,U/L,3.85,U/L,LOW,3,Week 4,2025-08-09
CLIN-2025-042,LB,CLIN-2025-042-SITE03-0023,2,AST,Aspartate aminotransferase,15.42,U/L,15.42,U/L,NORMAL,3,Week 4,2025-08-09
CLIN-2025-042,LB,CLIN-2025-042-SITE03-0023,3,BILI,Bilirubin total,1.10,mg/dL,1.1,mg/dL,NORMAL,3,Week 4,2025-08-09
CLIN-2025-042,LB,CLIN-2025-042-SITE03-0023,4,CREAT,Creatinine,0.89,mg/dL,0.89,mg/dL,NORMAL,3,Week 4,2025-08-09
CLIN-2025-042,LB,CLIN-2025-042-SITE03-0023,5,HGB,Hemoglobin,16.11,g/dL,16.11,g/dL,NORMAL,3,Week 4,2025-08-09
CLIN-2025-042,LB,CLIN-2025-042-SITE03-0023,6,WBC,White blood cell count,8.28,K/uL,8.28,K/uL,NORMAL,3,Week 4,2025-08-09
CLIN-2025-042,LB,CLIN-2025-042-SITE03-0023,7,PLT,Platelet count,246.68,K/uL,246.68,K/uL,NORMAL,3,Week 4,2025-08-09
CLIN-2025-042,LB,CLIN-2025-042-SITE03-0023,8,GLUC,Glucose,88.20,mg/dL,88.2,mg/dL,NORMAL,3,Week 4,2025-08-09
CLIN-2025-042,LB,CLIN-2025-042-SITE03-0023,1,ALT,Alanine aminotransferase,28.59,U/L,28.59,U/L,NORMAL,4,Week 8,2025-09-06
CLIN-2025-042,LB,CLIN-2025-042-SITE03-0023,2,AST,Aspartate aminotransferase,18.06,U/L,18.06,U/L,NORMAL,4,Week 8,2025-09-06
CLIN-2025-042,LB,CLIN-2025-042-SITE03-0023,3,BILI,Bilirubin total,1.04,mg/dL,1.04,mg/dL,NORMAL,4,Week 8,2025-09-06
CLIN-2025-042,LB,CLIN-2025-042-SITE03-0023,4,CREAT,Creatinine,0.90,mg/dL,0.9,mg/dL,NORMAL,4,Week 8,2025-09-06
CLIN-2025-042,LB,CLIN-2025-042-SITE03-0023,5,HGB,Hemoglobin,14.02,g/dL,14.02,g/dL,NORMAL,4,Week 8,2025-09-06
CLIN-2025-042,LB,CLIN-2025-042-SITE03-0023,6,WBC,White blood cell count,8.76,K/uL,8.76,K/uL,NORMAL,4,Week 8,2025-09-06
CLIN-2025-042,LB,CLIN-2025-042-SITE03-0023,7,PLT,Platelet count,327.82,K/uL,327.82,K/uL,NORMAL,4,Week 8,2025-09-06
CLIN-2025-042,LB,CLIN-2025-042-SITE03-0023,8,GLUC,Glucose,88.30,mg/dL,88.3,mg/dL,NORMAL,4,Week 8,2025-09-06
CLIN-2025-042,LB,CLIN-2025-042-SITE04-0024,1,ALT,Alanine aminotransferase,42.07,U/L,42.07,U/L,NORMAL,1,Screening,2025-04-14
CLIN-2025-042,LB,CLIN-2025-042-SITE04-0024,2,AST,Aspartate aminotransferase,23.95,U/L,23.95,U/L,NORMAL,1,Screening,2025-04-14
CLIN-2025-042,LB,CLIN-2025-042-SITE04-0024,3,BILI,Bilirubin total,0.83,mg/dL,0.83,mg/dL,NORMAL,1,Screening,2025-04-14
CLIN-2025-042,LB,CLIN-2025-042-SITE04-0024,4,CREAT,Creatinine,0.36,mg/dL,0.36,mg/dL,LOW,1,Screening,2025-04-14
CLIN-2025-042,LB,CLIN-2025-042-SITE04-0024,5,HGB,Hemoglobin,16.41,g/dL,16.41,g/dL,NORMAL,1,Screening,2025-04-14
CLIN-2025-042,LB,CLIN-2025-042-SITE04-0024,6,WBC,White blood cell count,8.67,K/uL,8.67,K/uL,NORMAL,1,Screening,2025-04-14
CLIN-2025-042,LB,CLIN-2025-042-SITE04-0024,7,PLT,Platelet count,723.55,K/uL,723.55,K/uL,HIGH,1,Screening,2025-04-14
CLIN-2025-042,LB,CLIN-2025-042-SITE04-0024,8,GLUC,Glucose,93.67,mg/dL,93.67,mg/dL,NORMAL,1,Screening,2025-04-14
CLIN-2025-042,LB,CLIN-2025-042-SITE04-0024,1,ALT,Alanine aminotransferase,31.40,U/L,31.4,U/L,NORMAL,2,Baseline,2025-06-16
CLIN-2025-042,LB,CLIN-2025-042-SITE04-0024,2,AST,Aspartate aminotransferase,35.04,U/L,35.04,U/L,NORMAL,2,Baseline,2025-06-16
CLIN-2025-042,LB,CLIN-2025-042-SITE04-0024,3,BILI,Bilirubin total,0.81,mg/dL,0.81,mg/dL,NORMAL,2,Baseline,2025-06-16
CLIN-2025-042,LB,CLIN-2025-042-SITE04-0024,4,CREAT,Creatinine,1.21,mg/dL,1.21,mg/dL,NORMAL,2,Baseline,2025-06-16
CLIN-2025-042,LB,CLIN-2025-042-SITE04-0024,5,HGB,Hemoglobin,14.09,g/dL,14.09,g/dL,NORMAL,2,Baseline,2025-06-16
CLIN-2025-042,LB,CLIN-2025-042-SITE04-0024,6,WBC,White blood cell count,8.02,K/uL,8.02,K/uL,NORMAL,2,Baseline,2025-06-16
CLIN-2025-042,LB,CLIN-2025-042-SITE04-0024,7,PLT,Platelet count,190.33,K/uL,190.33,K/uL,NORMAL,2,Baseline,2025-06-16
CLIN-2025-042,LB,CLIN-2025-042-SITE04-0024,8,GLUC,Glucose,82.40,mg/dL,82.4,mg/dL,NORMAL,2,Baseline,2025-06-16
CLIN-2025-042,LB,CLIN-2025-042-SITE04-0024,1,ALT,Alanine aminotransferase,49.37,U/L,49.37,U/L,NORMAL,3,Week 4,2025-07-14
CLIN-2025-042,LB,CLIN-2025-042-SITE04-0024,2,AST,Aspartate aminotransferase,25.94,U/L,25.94,U/L,NORMAL,3,Week 4,2025-07-14
CLIN-2025-042,LB,CLIN-2025-042-SITE04-0024,3,BILI,Bilirubin total,0.70,mg/dL,0.7,mg/dL,NORMAL,3,Week 4,2025-07-14
CLIN-2025-042,LB,CLIN-2025-042-SITE04-0024,4,CREAT,Creatinine,0.26,mg/dL,0.26,mg/dL,LOW,3,Week 4,2025-07-14
CLIN-2025-042,LB,CLIN-2025-042-SITE04-0024,5,HGB,Hemoglobin,14.90,g/dL,14.9,g/dL,NORMAL,3,Week 4,2025-07-14
CLIN-2025-042,LB,CLIN-2025-042-SITE04-0024,6,WBC,White blood cell count,7.86,K/uL,7.86,K/uL,NORMAL,3,Week 4,2025-07-14
CLIN-2025-042,LB,CLIN-2025-042-SITE04-0024,7,PLT,Platelet count,262.68,K/uL,262.68,K/uL,NORMAL,3,Week 4,2025-07-14
CLIN-2025-042,LB,CLIN-2025-042-SITE04-0024,8,GLUC,Glucose,70.48,mg/dL,70.48,mg/dL,NORMAL,3,Week 4,2025-07-14
CLIN-2025-042,LB,CLIN-2025-042-SITE04-0024,1,ALT,Alanine aminotransferase,42.16,U/L,42.16,U/L,NORMAL,4,Week 8,2025-08-11
CLIN-2025-042,LB,CLIN-2025-042-SITE04-0024,2,AST,Aspartate aminotransferase,7.56,U/L,7.56,U/L,LOW,4,Week 8,2025-08-11
CLIN-2025-042,LB,CLIN-2025-042-SITE04-0024,3,BILI,Bilirubin total,0.43,mg/dL,0.43,mg/dL,NORMAL,4,Week 8,2025-08-11
CLIN-2025-042,LB,CLIN-2025-042-SITE04-0024,4,CREAT,Creatinine,0.38,mg/dL,0.38,mg/dL,LOW,4,Week 8,2025-08-11
CLIN-2025-042,LB,CLIN-2025-042-SITE04-0024,5,HGB,Hemoglobin,16.00,g/dL,16.0,g/dL,NORMAL,4,Week 8,2025-08-11
CLIN-2025-042,LB,CLIN-2025-042-SITE04-0024,6,WBC,White blood cell count,7.85,K/uL,7.85,K/uL,NORMAL,4,Week 8,2025-08-11
CLIN-2025-042,LB,CLIN-2025-042-SITE04-0024,7,PLT,Platelet count,184.50,K/uL,184.5,K/uL,NORMAL,4,Week 8,2025-08-11
CLIN-2025-042,LB,CLIN-2025-042-SITE04-0024,8,GLUC,Glucose,88.59,mg/dL,88.59,mg/dL,NORMAL,4,Week 8,2025-08-11
CLIN-2025-042,LB,CLIN-2025-042-SITE05-0025,1,ALT,Alanine aminotransferase,30.29,U/L,30.29,U/L,NORMAL,1,Screening,2025-06-20
CLIN-2025-042,LB,CLIN-2025-042-SITE05-0025,2,AST,Aspartate aminotransferase,38.36,U/L,38.36,U/L,NORMAL,1,Screening,2025-06-20
CLIN-2025-042,LB,CLIN-2025-042-SITE05-0025,3,BILI,Bilirubin total,0.70,mg/dL,0.7,mg/dL,NORMAL,1,Screening,2025-06-20
CLIN-2025-042,LB,CLIN-2025-042-SITE05-0025,4,CREAT,Creatinine,0.97,mg/dL,0.97,mg/dL,NORMAL,1,Screening,2025-06-20
CLIN-2025-042,LB,CLIN-2025-042-SITE05-0025,5,HGB,Hemoglobin,16.80,g/dL,16.8,g/dL,NORMAL,1,Screening,2025-06-20
CLIN-2025-042,LB,CLIN-2025-042-SITE05-0025,6,WBC,White blood cell count,14.99,K/uL,14.99,K/uL,HIGH,1,Screening,2025-06-20
CLIN-2025-042,LB,CLIN-2025-042-SITE05-0025,7,PLT,Platelet count,200.40,K/uL,200.4,K/uL,NORMAL,1,Screening,2025-06-20
CLIN-2025-042,LB,CLIN-2025-042-SITE05-0025,8,GLUC,Glucose,73.57,mg/dL,73.57,mg/dL,NORMAL,1,Screening,2025-06-20
CLIN-2025-042,LB,CLIN-2025-042-SITE05-0025,1,ALT,Alanine aminotransferase,73.56,U/L,73.56,U/L,HIGH,2,Baseline,2025-08-22
CLIN-2025-042,LB,CLIN-2025-042-SITE05-0025,2,AST,Aspartate aminotransferase,25.01,U/L,25.01,U/L,NORMAL,2,Baseline,2025-08-22
CLIN-2025-042,LB,CLIN-2025-042-SITE05-0025,3,BILI,Bilirubin total,0.25,mg/dL,0.25,mg/dL,NORMAL,2,Baseline,2025-08-22
CLIN-2025-042,LB,CLIN-2025-042-SITE05-0025,4,CREAT,Creatinine,1.91,mg/dL,1.91,mg/dL,HIGH,2,Baseline,2025-08-22
CLIN-2025-042,LB,CLIN-2025-042-SITE05-0025,5,HGB,Hemoglobin,15.50,g/dL,15.5,g/dL,NORMAL,2,Baseline,2025-08-22
CLIN-2025-042,LB,CLIN-2025-042-SITE05-0025,6,WBC,White blood cell count,7.58,K/uL,7.58,K/uL,NORMAL,2,Baseline,2025-08-22
CLIN-2025-042,LB,CLIN-2025-042-SITE05-0025,7,PLT,Platelet count,260.46,K/uL,260.46,K/uL,NORMAL,2,Baseline,2025-08-22
CLIN-2025-042,LB,CLIN-2025-042-SITE05-0025,8,GLUC,Glucose,116.38,mg/dL,116.38,mg/dL,HIGH,2,Baseline,2025-08-22
CLIN-2025-042,LB,CLIN-2025-042-SITE05-0025,1,ALT,Alanine aminotransferase,38.09,U/L,38.09,U/L,NORMAL,3,Week 4,2025-09-19
CLIN-2025-042,LB,CLIN-2025-042-SITE05-0025,2,AST,Aspartate aminotransferase,21.67,U/L,21.67,U/L,NORMAL,3,Week 4,2025-09-19
CLIN-2025-042,LB,CLIN-2025-042-SITE05-0025,3,BILI,Bilirubin total,0.95,mg/dL,0.95,mg/dL,NORMAL,3,Week 4,2025-09-19
CLIN-2025-042,LB,CLIN-2025-042-SITE05-0025,4,CREAT,Creatinine,0.89,mg/dL,0.89,mg/dL,NORMAL,3,Week 4,2025-09-19
CLIN-2025-042,LB,CLIN-2025-042-SITE05-0025,5,HGB,Hemoglobin,16.30,g/dL,16.3,g/dL,NORMAL,3,Week 4,2025-09-19
CLIN-2025-042,LB,CLIN-2025-042-SITE05-0025,6,WBC,White blood cell count,11.99,K/uL,11.99,K/uL,HIGH,3,Week 4,2025-09-19
CLIN-2025-042,LB,CLIN-2025-042-SITE05-0025,7,PLT,Platelet count,272.84,K/uL,272.84,K/uL,NORMAL,3,Week 4,2025-09-19
CLIN-2025-042,LB,CLIN-2025-042-SITE05-0025,8,GLUC,Glucose,84.98,mg/dL,84.98,mg/dL,NORMAL,3,Week 4,2025-09-19
CLIN-2025-042,LB,CLIN-2025-042-SITE05-0025,1,ALT,Alanine aminotransferase,26.78,U/L,26.78,U/L,NORMAL,4,Week 8,2025-10-17
CLIN-2025-042,LB,CLIN-2025-042-SITE05-0025,2,AST,Aspartate aminotransferase,31.90,U/L,31.9,U/L,NORMAL,4,Week 8,2025-10-17
CLIN-2025-042,LB,CLIN-2025-042-SITE05-0025,3,BILI,Bilirubin total,0.70,mg/dL,0.7,mg/dL,NORMAL,4,Week 8,2025-10-17
CLIN-2025-042,LB,CLIN-2025-042-SITE05-0025,4,CREAT,Creatinine,0.97,mg/dL,0.97,mg/dL,NORMAL,4,Week 8,2025-10-17
CLIN-2025-042,LB,CLIN-2025-042-SITE05-0025,5,HGB,Hemoglobin,15.25,g/dL,15.25,g/dL,NORMAL,4,Week 8,2025-10-17
CLIN-2025-042,LB,CLIN-2025-042-SITE05-0025,6,WBC,White blood cell count,9.64,K/uL,9.64,K/uL,NORMAL,4,Week 8,2025-10-17
CLIN-2025-042,LB,CLIN-2025-042-SITE05-0025,7,PLT,Platelet count,480.81,K/uL,480.81,K/uL,NORMAL,4,Week 8,2025-10-17
CLIN-2025-042,LB,CLIN-2025-042-SITE05-0025,8,GLUC,Glucose,88.57,mg/dL,88.57,mg/dL,NORMAL,4,Week 8,2025-10-17
CLIN-2025-042,LB,CLIN-2025-042-SITE01-0026,1,ALT,Alanine aminotransferase,26.74,U/L,26.74,U/L,NORMAL,1,Screening,2025-02-15
CLIN-2025-042,LB,CLIN-2025-042-SITE01-0026,2,AST,Aspartate aminotransferase,28.90,U/L,28.9,U/L,NORMAL,1,Screening,2025-02-15
CLIN-2025-042,LB,CLIN-2025-042-SITE01-0026,3,BILI,Bilirubin total,0.30,mg/dL,0.3,mg/dL,NORMAL,1,Screening,2025-02-15
CLIN-2025-042,LB,CLIN-2025-042-SITE01-0026,4,CREAT,Creatinine,0.62,mg/dL,0.62,mg/dL,NORMAL,1,Screening,2025-02-15
CLIN-2025-042,LB,CLIN-2025-042-SITE01-0026,5,HGB,Hemoglobin,18.20,g/dL,18.2,g/dL,HIGH,1,Screening,2025-02-15
CLIN-2025-042,LB,CLIN-2025-042-SITE01-0026,6,WBC,White blood cell count,6.44,K/uL,6.44,K/uL,NORMAL,1,Screening,2025-02-15
CLIN-2025-042,LB,CLIN-2025-042-SITE01-0026,7,PLT,Platelet count,314.85,K/uL,314.85,K/uL,NORMAL,1,Screening,2025-02-15
CLIN-2025-042,LB,CLIN-2025-042-SITE01-0026,8,GLUC,Glucose,83.27,mg/dL,83.27,mg/dL,NORMAL,1,Screening,2025-02-15
CLIN-2025-042,LB,CLIN-2025-042-SITE01-0026,1,ALT,Alanine aminotransferase,49.71,U/L,49.71,U/L,NORMAL,2,Baseline,2025-04-19
CLIN-2025-042,LB,CLIN-2025-042-SITE01-0026,2,AST,Aspartate aminotransferase,6.56,U/L,6.56,U/L,LOW,2,Baseline,2025-04-19
CLIN-2025-042,LB,CLIN-2025-042-SITE01-0026,3,BILI,Bilirubin total,2.05,mg/dL,2.05,mg/dL,HIGH,2,Baseline,2025-04-19
CLIN-2025-042,LB,CLIN-2025-042-SITE01-0026,4,CREAT,Creatinine,0.81,mg/dL,0.81,mg/dL,NORMAL,2,Baseline,2025-04-19
CLIN-2025-042,LB,CLIN-2025-042-SITE01-0026,5,HGB,Hemoglobin,16.09,g/dL,16.09,g/dL,NORMAL,2,Baseline,2025-04-19
CLIN-2025-042,LB,CLIN-2025-042-SITE01-0026,6,WBC,White blood cell count,5.39,K/uL,5.39,K/uL,NORMAL,2,Baseline,2025-04-19
CLIN-2025-042,LB,CLIN-2025-042-SITE01-0026,7,PLT,Platelet count,291.73,K/uL,293.55806692532366,K/uL,NORMAL,2,Baseline,2025-04-19
CLIN-2025-042,LB,CLIN-2025-042-SITE01-0026,8,GLUC,Glucose,88.02,mg/dL,88.02,mg/dL,NORMAL,2,Baseline,2025-04-19
CLIN-2025-042,LB,CLIN-2025-042-SITE01-0026,1,ALT,Alanine aminotransferase,77.99,U/L,77.99,U/L,HIGH,3,Week 4,2025-05-17
CLIN-2025-042,LB,CLIN-2025-042-SITE01-0026,2,AST,Aspartate aminotransferase,17.67,U/L,17.67,U/L,NORMAL,3,Week 4,2025-05-17
CLIN-2025-042,LB,CLIN-2025-042-SITE01-0026,3,BILI,Bilirubin total,0.66,mg/dL,0.66,mg/dL,NORMAL,3,Week 4,2025-05-17
CLIN-2025-042,LB,CLIN-2025-042-SITE01-0026,4,CREAT,Creatinine,1.23,mg/dL,1.23,mg/dL,NORMAL,3,Week 4,2025-05-17
CLIN-2025-042,LB,CLIN-2025-042-SITE01-0026,5,HGB,Hemoglobin,15.33,g/dL,15.33,g/dL,NORMAL,3,Week 4,2025-05-17
CLIN-2025-042,LB,CLIN-2025-042-SITE01-0026,6,WBC,White blood cell count,8.47,K/uL,8.47,K/uL,NORMAL,3,Week 4,2025-05-17
CLIN-2025-042,LB,CLIN-2025-042-SITE01-0026,7,PLT,Platelet count,291.59,K/uL,291.59,K/uL,NORMAL,3,Week 4,2025-05-17
CLIN-2025-042,LB,CLIN-2025-042-SITE01-0026,8,GLUC,Glucose,88.77,mg/dL,88.77,mg/dL,NORMAL,3,Week 4,2025-05-17
CLIN-2025-042,LB,CLIN-2025-042-SITE01-0026,1,ALT,Alanine aminotransferase,49.52,U/L,49.52,U/L,NORMAL,4,Week 8,2025-06-14
CLIN-2025-042,LB,CLIN-2025-042-SITE01-0026,2,AST,Aspartate aminotransferase,4.17,U/L,4.17,U/L,LOW,4,Week 8,2025-06-14
CLIN-2025-042,LB,CLIN-2025-042-SITE01-0026,3,BILI,Bilirubin total,0.75,mg/dL,0.75,mg/dL,NORMAL,4,Week 8,2025-06-14
CLIN-2025-042,LB,CLIN-2025-042-SITE01-0026,4,CREAT,Creatinine,0.95,mg/dL,0.95,mg/dL,NORMAL,4,Week 8,2025-06-14
CLIN-2025-042,LB,CLIN-2025-042-SITE01-0026,5,HGB,Hemoglobin,16.30,g/dL,16.3,g/dL,NORMAL,4,Week 8,2025-06-14
CLIN-2025-042,LB,CLIN-2025-042-SITE01-0026,6,WBC,White blood cell count,6.54,K/uL,6.54,K/uL,NORMAL,4,Week 8,2025-06-14
CLIN-2025-042,LB,CLIN-2025-042-SITE01-0026,7,PLT,Platelet count,245.41,K/uL,245.41,K/uL,NORMAL,4,Week 8,2025-06-14
CLIN-2025-042,LB,CLIN-2025-042-SITE01-0026,8,GLUC,Glucose,78.21,mg/dL,78.21,mg/dL,NORMAL,4,Week 8,2025-06-14
CLIN-2025-042,LB,CLIN-2025-042-SITE02-0027,1,ALT,Alanine aminotransferase,59.59,U/L,59.59,U/L,NORMAL,1,Screening,2025-06-15
CLIN-2025-042,LB,CLIN-2025-042-SITE02-0027,2,AST,Aspartate aminotransferase,4.50,U/L,4.5,U/L,LOW,1,Screening,2025-06-15
CLIN-2025-042,LB,CLIN-2025-042-SITE02-0027,3,BILI,Bilirubin total,0.43,mg/dL,0.43,mg/dL,NORMAL,1,Screening,2025-06-15
CLIN-2025-042,LB,CLIN-2025-042-SITE02-0027,4,CREAT,Creatinine,1.28,mg/dL,1.28,mg/dL,NORMAL,1,Screening,2025-06-15
CLIN-2025-042,LB,CLIN-2025-042-SITE02-0027,5,HGB,Hemoglobin,15.17,g/dL,15.17,g/dL,NORMAL,1,Screening,2025-06-15
CLIN-2025-042,LB,CLIN-2025-042-SITE02-0027,6,WBC,White blood cell count,13.66,K/uL,13.66,K/uL,HIGH,1,Screening,2025-06-15
CLIN-2025-042,LB,CLIN-2025-042-SITE02-0027,7,PLT,Platelet count,253.23,K/uL,253.23,K/uL,NORMAL,1,Screening,2025-06-15
CLIN-2025-042,LB,CLIN-2025-042-SITE02-0027,8,GLUC,Glucose,95.74,mg/dL,95.74,mg/dL,NORMAL,1,Screening,2025-06-15
CLIN-2025-042,LB,CLIN-2025-042-SITE02-0027,1,ALT,Alanine aminotransferase,5.40,U/L,5.4,U/L,LOW,2,Baseline,2025-08-17
CLIN-2025-042,LB,CLIN-2025-042-SITE02-0027,2,AST,Aspartate aminotransferase,50.78,U/L,50.773338369383055,U/L,HIGH,2,Baseline,2025-08-17
CLIN-2025-042,LB,CLIN-2025-042-SITE02-0027,3,BILI,Bilirubin total,0.64,mg/dL,0.64,mg/dL,NORMAL,2,Baseline,2025-08-17
CLIN-2025-042,LB,CLIN-2025-042-SITE02-0027,4,CREAT,Creatinine,1.73,mg/dL,1.73,mg/dL,HIGH,2,Baseline,2025-08-17
CLIN-2025-042,LB,CLIN-2025-042-SITE02-0027,5,HGB,Hemoglobin,15.53,g/dL,15.53,g/dL,NORMAL,2,Baseline,2025-08-17
CLIN-2025-042,LB,CLIN-2025-042-SITE02-0027,6,WBC,White blood cell count,4.91,K/uL,4.91,K/uL,NORMAL,2,Baseline,2025-08-17
CLIN-2025-042,LB,CLIN-2025-042-SITE02-0027,7,PLT,Platelet count,270.57,K/uL,270.57,K/uL,NORMAL,2,Baseline,2025-08-17
CLIN-2025-042,LB,CLIN-2025-042-SITE02-0027,8,GLUC,Glucose,83.51,mg/dL,83.51,mg/dL,NORMAL,2,Baseline,2025-08-17
CLIN-2025-042,LB,CLIN-2025-042-SITE02-0027,1,ALT,Alanine aminotransferase,56.44,U/L,56.44,U/L,NORMAL,3,Week 4,2025-09-14
CLIN-2025-042,LB,CLIN-2025-042-SITE02-0027,2,AST,Aspartate aminotransferase,25.85,U/L,25.85,U/L,NORMAL,3,Week 4,2025-09-14
CLIN-2025-042,LB,CLIN-2025-042-SITE02-0027,3,BILI,Bilirubin total,0.52,mg/dL,0.52,mg/dL,NORMAL,3,Week 4,2025-09-14
CLIN-2025-042,LB,CLIN-2025-042-SITE02-0027,4,CREAT,Creatinine,1.05,mg/dL,1.05,mg/dL,NORMAL,3,Week 4,2025-09-14
CLIN-2025-042,LB,CLIN-2025-042-SITE02-0027,5,HGB,Hemoglobin,19.28,g/dL,19.28,g/dL,HIGH,3,Week 4,2025-09-14
CLIN-2025-042,LB,CLIN-2025-042-SITE02-0027,6,WBC,White blood cell count,10.21,K/uL,10.21,K/uL,NORMAL,3,Week 4,2025-09-14
CLIN-2025-042,LB,CLIN-2025-042-SITE02-0027,7,PLT,Platelet count,163.66,K/uL,163.66,K/uL,NORMAL,3,Week 4,2025-09-14
CLIN-2025-042,LB,CLIN-2025-042-SITE02-0027,8,GLUC,Glucose,77.00,mg/dL,77.0,mg/dL,NORMAL,3,Week 4,2025-09-14
CLIN-2025-042,LB,CLIN-2025-042-SITE02-0027,1,ALT,Alanine aminotransferase,30.07,U/L,30.07,U/L,NORMAL,4,Week 8,2025-10-12
CLIN-2025-042,LB,CLIN-2025-042-SITE02-0027,2,AST,Aspartate aminotransferase,26.74,U/L,26.74,U/L,NORMAL,4,Week 8,2025-10-12
CLIN-2025-042,LB,CLIN-2025-042-SITE02-0027,3,BILI,Bilirubin total,0.10,mg/dL,0.1,mg/dL,LOW,4,Week 8,2025-10-12
CLIN-2025-042,LB,CLIN-2025-042-SITE02-0027,4,CREAT,Creatinine,1.50,mg/dL,1.5,mg/dL,HIGH,4,Week 8,2025-10-12
CLIN-2025-042,LB,CLIN-2025-042-SITE02-0027,5,HGB,Hemoglobin,19.25,g/dL,19.25,g/dL,HIGH,4,Week 8,2025-10-12
CLIN-2025-042,LB,CLIN-2025-042-SITE02-0027,6,WBC,White blood cell count,9.57,K/uL,9.57,K/uL,NORMAL,4,Week 8,2025-10-12
CLIN-2025-042,LB,CLIN-2025-042-SITE02-0027,7,PLT,Platelet count,284.03,K/uL,284.03,K/uL,NORMAL,4,Week 8,2025-10-12
CLIN-2025-042,LB,CLIN-2025-042-SITE02-0027,8,GLUC,Glucose,95.07,mg/dL,95.07,mg/dL,NORMAL,4,Week 8,2025-10-12
CLIN-2025-042,LB,CLIN-2025-042-SITE03-0028,1,ALT,Alanine aminotransferase,54.13,U/L,54.13,U/L,NORMAL,1,Screening,2025-02-24
CLIN-2025-042,LB,CLIN-2025-042-SITE03-0028,2,AST,Aspartate aminotransferase,26.30,U/L,26.3,U/L,NORMAL,1,Screening,2025-02-24
CLIN-2025-042,LB,CLIN-2025-042-SITE03-0028,3,BILI,Bilirubin total,0.90,mg/dL,0.9,mg/dL,NORMAL,1,Screening,2025-02-24
CLIN-2025-042,LB,CLIN-2025-042-SITE03-0028,4,CREAT,Creatinine,1.09,mg/dL,1.09,mg/dL,NORMAL,1,Screening,2025-02-24
CLIN-2025-042,LB,CLIN-2025-042-SITE03-0028,5,HGB,Hemoglobin,26.54,g/dL,26.54,g/dL,HIGH,1,Screening,2025-02-24
CLIN-2025-042,LB,CLIN-2025-042-SITE03-0028,6,WBC,White blood cell count,3.12,K/uL,3.12,K/uL,LOW,1,Screening,2025-02-24
CLIN-2025-042,LB,CLIN-2025-042-SITE03-0028,7,PLT,Platelet count,198.10,K/uL,198.1,K/uL,NORMAL,1,Screening,2025-02-24
CLIN-2025-042,LB,CLIN-2025-042-SITE03-0028,8,GLUC,Glucose,86.87,mg/dL,86.87,mg/dL,NORMAL,1,Screening,2025-02-24
CLIN-2025-042,LB,CLIN-2025-042-SITE03-0028,1,ALT,Alanine aminotransferase,27.22,U/L,27.22,U/L,NORMAL,2,Baseline,2025-04-28
CLIN-2025-042,LB,CLIN-2025-042-SITE03-0028,2,AST,Aspartate aminotransferase,20.14,U/L,20.14,U/L,NORMAL,2,Baseline,2025-04-28
CLIN-2025-042,LB,CLIN-2025-042-SITE03-0028,3,BILI,Bilirubin total,0.96,mg/dL,0.96,mg/dL,NORMAL,2,Baseline,2025-04-28
CLIN-2025-042,LB,CLIN-2025-042-SITE03-0028,4,CREAT,Creatinine,0.93,mg/dL,0.93,mg/dL,NORMAL,2,Baseline,2025-04-28
CLIN-2025-042,LB,CLIN-2025-042-SITE03-0028,5,HGB,Hemoglobin,14.63,g/dL,14.63,g/dL,NORMAL,2,Baseline,2025-04-28
CLIN-2025-042,LB,CLIN-2025-042-SITE03-0028,6,WBC,White blood cell count,8.40,K/uL,8.4,K/uL,NORMAL,2,Baseline,2025-04-28
CLIN-2025-042,LB,CLIN-2025-042-SITE03-0028,7,PLT,Platelet count,266.83,K/uL,266.83,K/uL,NORMAL,2,Baseline,2025-04-28
CLIN-2025-042,LB,CLIN-2025-042-SITE03-0028,8,GLUC,Glucose,51.65,mg/dL,51.65,mg/dL,LOW,2,Baseline,2025-04-28
CLIN-2025-042,LB,CLIN-2025-042-SITE03-0028,1,ALT,Alanine aminotransferase,76.40,U/L,76.4,U/L,HIGH,3,Week 4,2025-05-26
CLIN-2025-042,LB,CLIN-2025-042-SITE03-0028,2,AST,Aspartate aminotransferase,11.00,U/L,11.0,U/L,NORMAL,3,Week 4,2025-05-26
CLIN-2025-042,LB,CLIN-2025-042-SITE03-0028,3,BILI,Bilirubin total,0.67,mg/dL,0.67,mg/dL,NORMAL,3,Week 4,2025-05-26
CLIN-2025-042,LB,CLIN-2025-042-SITE03-0028,4,CREAT,Creatinine,0.86,mg/dL,0.86,mg/dL,NORMAL,3,Week 4,2025-05-26
CLIN-2025-042,LB,CLIN-2025-042-SITE03-0028,5,HGB,Hemoglobin,15.21,g/dL,15.21,g/dL,NORMAL,3,Week 4,2025-05-26
CLIN-2025-042,LB,CLIN-2025-042-SITE03-0028,6,WBC,White blood cell count,17.74,K/uL,17.74,K/uL,HIGH,3,Week 4,2025-05-26
CLIN-2025-042,LB,CLIN-2025-042-SITE03-0028,7,PLT,Platelet count,221.77,K/uL,221.77,K/uL,NORMAL,3,Week 4,2025-05-26
CLIN-2025-042,LB,CLIN-2025-042-SITE03-0028,8,GLUC,Glucose,79.02,mg/dL,79.02,mg/dL,NORMAL,3,Week 4,2025-05-26
CLIN-2025-042,LB,CLIN-2025-042-SITE03-0028,1,ALT,Alanine aminotransferase,56.11,U/L,56.11,U/L,NORMAL,4,Week 8,2025-06-23
CLIN-2025-042,LB,CLIN-2025-042-SITE03-0028,2,AST,Aspartate aminotransferase,25.04,U/L,25.04,U/L,NORMAL,4,Week 8,2025-06-23
CLIN-2025-042,LB,CLIN-2025-042-SITE03-0028,3,BILI,Bilirubin total,0.10,mg/dL,0.1,mg/dL,LOW,4,Week 8,2025-06-23
CLIN-2025-042,LB,CLIN-2025-042-SITE03-0028,4,CREAT,Creatinine,0.46,mg/dL,0.46,mg/dL,LOW,4,Week 8,2025-06-23
CLIN-2025-042,LB,CLIN-2025-042-SITE03-0028,5,HGB,Hemoglobin,16.14,g/dL,16.14,g/dL,NORMAL,4,Week 8,2025-06-23
CLIN-2025-042,LB,CLIN-2025-042-SITE03-0028,6,WBC,White blood cell count,7.47,K/uL,7.47,K/uL,NORMAL,4,Week 8,2025-06-23
CLIN-2025-042,LB,CLIN-2025-042-SITE03-0028,7,PLT,Platelet count,137.37,K/uL,137.37,K/uL,NORMAL,4,Week 8,2025-06-23
CLIN-2025-042,LB,CLIN-2025-042-SITE03-0028,8,GLUC,Glucose,90.00,mg/dL,90.0,mg/dL,NORMAL,4,Week 8,2025-06-23
CLIN-2025-042,LB,CLIN-2025-042-SITE04-0029,1,ALT,Alanine aminotransferase,25.02,U/L,25.02,U/L,NORMAL,1,Screening,2025-06-03
CLIN-2025-042,LB,CLIN-2025-042-SITE04-0029,2,AST,Aspartate aminotransferase,16.71,U/L,16.71,U/L,NORMAL,1,Screening,2025-06-03
CLIN-2025-042,LB,CLIN-2025-042-SITE04-0029,3,BILI,Bilirubin total,0.73,mg/dL,0.73,mg/dL,NORMAL,1,Screening,2025-06-03
CLIN-2025-042,LB,CLIN-2025-042-SITE04-0029,4,CREAT,Creatinine,0.91,mg/dL,0.91,mg/dL,NORMAL,1,Screening,2025-06-03
CLIN-2025-042,LB,CLIN-2025-042-SITE04-0029,5,HGB,Hemoglobin,8.35,g/dL,8.35,g/dL,LOW,1,Screening,2025-06-03
CLIN-2025-042,LB,CLIN-2025-042-SITE04-0029,6,WBC,White blood cell count,7.86,K/uL,7.86,K/uL,NORMAL,1,Screening,2025-06-03
CLIN-2025-042,LB,CLIN-2025-042-SITE04-0029,7,PLT,Platelet count,312.58,K/uL,312.58,K/uL,NORMAL,1,Screening,2025-06-03
CLIN-2025-042,LB,CLIN-2025-042-SITE04-0029,8,GLUC,Glucose,90.05,mg/dL,90.05,mg/dL,NORMAL,1,Screening,2025-06-03
CLIN-2025-042,LB,CLIN-2025-042-SITE04-0029,1,ALT,Alanine aminotransferase,67.52,U/L,67.52,U/L,HIGH,2,Baseline,2025-08-05
CLIN-2025-042,LB,CLIN-2025-042-SITE04-0029,2,AST,Aspartate aminotransferase,12.76,U/L,12.76,U/L,NORMAL,2,Baseline,2025-08-05
CLIN-2025-042,LB,CLIN-2025-042-SITE04-0029,3,BILI,Bilirubin total,0.89,mg/dL,0.89,mg/dL,NORMAL,2,Baseline,2025-08-05
CLIN-2025-042,LB,CLIN-2025-042-SITE04-0029,4,CREAT,Creatinine,0.80,mg/dL,0.8,mg/dL,NORMAL,2,Baseline,2025-08-05
CLIN-2025-042,LB,CLIN-2025-042-SITE04-0029,5,HGB,Hemoglobin,15.65,g/dL,15.65,g/dL,NORMAL,2,Baseline,2025-08-05
CLIN-2025-042,LB,CLIN-2025-042-SITE04-0029,6,WBC,White blood cell count,6.86,K/uL,6.86,K/uL,NORMAL,2,Baseline,2025-08-05
CLIN-2025-042,LB,CLIN-2025-042-SITE04-0029,7,PLT,Platelet count,246.00,K/uL,246.0,K/uL,NORMAL,2,Baseline,2025-08-05
CLIN-2025-042,LB,CLIN-2025-042-SITE04-0029,8,GLUC,Glucose,67.88,mg/dL,67.88,mg/dL,NORMAL,2,Baseline,2025-08-05
CLIN-2025-042,LB,CLIN-2025-042-SITE04-0029,1,ALT,Alanine aminotransferase,44.38,U/L,44.38,U/L,NORMAL,3,Week 4,2025-09-02
CLIN-2025-042,LB,CLIN-2025-042-SITE04-0029,2,AST,Aspartate aminotransferase,15.84,U/L,15.84,U/L,NORMAL,3,Week 4,2025-09-02
CLIN-2025-042,LB,CLIN-2025-042-SITE04-0029,3,BILI,Bilirubin total,0.62,mg/dL,0.62,mg/dL,NORMAL,3,Week 4,2025-09-02
CLIN-2025-042,LB,CLIN-2025-042-SITE04-0029,4,CREAT,Creatinine,0.94,mg/dL,0.94,mg/dL,NORMAL,3,Week 4,2025-09-02
CLIN-2025-042,LB,CLIN-2025-042-SITE04-0029,5,HGB,Hemoglobin,15.87,g/dL,15.87,g/dL,NORMAL,3,Week 4,2025-09-02
CLIN-2025-042,LB,CLIN-2025-042-SITE04-0029,6,WBC,White blood cell count,9.54,K/uL,9.54,K/uL,NORMAL,3,Week 4,2025-09-02
CLIN-2025-042,LB,CLIN-2025-042-SITE04-0029,7,PLT,Platelet count,279.91,K/uL,279.91,K/uL,NORMAL,3,Week 4,2025-09-02
CLIN-2025-042,LB,CLIN-2025-042-SITE04-0029,8,GLUC,Glucose,91.05,mg/dL,91.05,mg/dL,NORMAL,3,Week 4,2025-09-02
CLIN-2025-042,LB,CLIN-2025-042-SITE04-0029,1,ALT,Alanine aminotransferase,2.66,U/L,2.66,U/L,LOW,4,Week 8,2025-09-30
CLIN-2025-042,LB,CLIN-2025-042-SITE04-0029,2,AST,Aspartate aminotransferase,5.61,U/L,5.61,U/L,LOW,4,Week 8,2025-09-30
CLIN-2025-042,LB,CLIN-2025-042-SITE04-0029,3,BILI,Bilirubin total,0.56,mg/dL,0.56,mg/dL,NORMAL,4,Week 8,2025-09-30
CLIN-2025-042,LB,CLIN-2025-042-SITE04-0029,4,CREAT,Creatinine,0.82,mg/dL,0.82,mg/dL,NORMAL,4,Week 8,2025-09-30
CLIN-2025-042,LB,CLIN-2025-042-SITE04-0029,5,HGB,Hemoglobin,16.78,g/dL,16.78,g/dL,NORMAL,4,Week 8,2025-09-30
CLIN-2025-042,LB,CLIN-2025-042-SITE04-0029,6,WBC,White blood cell count,8.66,K/uL,8.66,K/uL,NORMAL,4,Week 8,2025-09-30
CLIN-2025-042,LB,CLIN-2025-042-SITE04-0029,7,PLT,Platelet count,305.34,K/uL,305.34,K/uL,NORMAL,4,Week 8,2025-09-30
CLIN-2025-042,LB,CLIN-2025-042-SITE04-0029,8,GLUC,Glucose,165.94,mg/dL,165.94,mg/dL,HIGH,4,Week 8,2025-09-30
CLIN-2025-042,LB,CLIN-2025-042-SITE05-0030,1,ALT,Alanine aminotransferase,23.75,U/L,23.75,U/L,NORMAL,1,Screening,2025-06-20
CLIN-2025-042,LB,CLIN-2025-042-SITE05-0030,2,AST,Aspartate aminotransferase,24.10,U/L,24.1,U/L,NORMAL,1,Screening,2025-06-20
CLIN-2025-042,LB,CLIN-2025-042-SITE05-0030,3,BILI,Bilirubin total,0.50,mg/dL,0.5,mg/dL,NORMAL,1,Screening,2025-06-20
CLIN-2025-042,LB,CLIN-2025-042-SITE05-0030,4,CREAT,Creatinine,1.04,mg/dL,1.04,mg/dL,NORMAL,1,Screening,2025-06-20
CLIN-2025-042,LB,CLIN-2025-042-SITE05-0030,5,HGB,Hemoglobin,15.19,g/dL,15.19,g/dL,NORMAL,1,Screening,2025-06-20
CLIN-2025-042,LB,CLIN-2025-042-SITE05-0030,6,WBC,White blood cell count,10.08,K/uL,10.08,K/uL,NORMAL,1,Screening,2025-06-20
CLIN-2025-042,LB,CLIN-2025-042-SITE05-0030,7,PLT,Platelet count,173.09,K/uL,173.09,K/uL,NORMAL,1,Screening,2025-06-20
CLIN-2025-042,LB,CLIN-2025-042-SITE05-0030,8,GLUC,Glucose,73.28,mg/dL,73.28,mg/dL,NORMAL,1,Screening,2025-06-20
CLIN-2025-042,LB,CLIN-2025-042-SITE05-0030,1,ALT,Alanine aminotransferase,32.71,U/L,32.71,U/L,NORMAL,2,Baseline,2025-08-22
CLIN-2025-042,LB,CLIN-2025-042-SITE05-0030,2,AST,Aspartate aminotransferase,26.67,U/L,26.67,U/L,NORMAL,2,Baseline,2025-08-22
CLIN-2025-042,LB,CLIN-2025-042-SITE05-0030,3,BILI,Bilirubin total,1.06,mg/dL,1.06,mg/dL,NORMAL,2,Baseline,2025-08-22
CLIN-2025-042,LB,CLIN-2025-042-SITE05-0030,4,CREAT,Creatinine,0.80,mg/dL,0.8,mg/dL,NORMAL,2,Baseline,2025-08-22
CLIN-2025-042,LB,CLIN-2025-042-SITE05-0030,5,HGB,Hemoglobin,14.15,g/dL,14.15,g/dL,NORMAL,2,Baseline,2025-08-22
CLIN-2025-042,LB,CLIN-2025-042-SITE05-0030,6,WBC,White blood cell count,2.35,K/uL,2.35,K/uL,LOW,2,Baseline,2025-08-22
CLIN-2025-042,LB,CLIN-2025-042-SITE05-0030,7,PLT,Platelet count,207.49,K/uL,207.49,K/uL,NORMAL,2,Baseline,2025-08-22
CLIN-2025-042,LB,CLIN-2025-042-SITE05-0030,8,GLUC,Glucose,99.03,mg/dL,99.03,mg/dL,NORMAL,2,Baseline,2025-08-22
CLIN-2025-042,LB,CLIN-2025-042-SITE05-0030,1,ALT,Alanine aminotransferase,40.15,U/L,40.15,U/L,NORMAL,3,Week 4,2025-09-19
CLIN-2025-042,LB,CLIN-2025-042-SITE05-0030,2,AST,Aspartate aminotransferase,9.62,U/L,9.62,U/L,NORMAL,3,Week 4,2025-09-19
CLIN-2025-042,LB,CLIN-2025-042-SITE05-0030,3,BILI,Bilirubin total,0.51,mg/dL,0.51,mg/dL,NORMAL,3,Week 4,2025-09-19
CLIN-2025-042,LB,CLIN-2025-042-SITE05-0030,4,CREAT,Creatinine,1.19,mg/dL,1.19,mg/dL,NORMAL,3,Week 4,2025-09-19
CLIN-2025-042,LB,CLIN-2025-042-SITE05-0030,5,HGB,Hemoglobin,15.55,g/dL,15.55,g/dL,NORMAL,3,Week 4,2025-09-19
CLIN-2025-042,LB,CLIN-2025-042-SITE05-0030,6,WBC,White blood cell count,7.94,K/uL,7.94,K/uL,NORMAL,3,Week 4,2025-09-19
CLIN-2025-042,LB,CLIN-2025-042-SITE05-0030,7,PLT,Platelet count,289.17,K/uL,289.17,K/uL,NORMAL,3,Week 4,2025-09-19
CLIN-2025-042,LB,CLIN-2025-042-SITE05-0030,8,GLUC,Glucose,90.26,mg/dL,90.26,mg/dL,NORMAL,3,Week 4,2025-09-19
CLIN-2025-042,LB,CLIN-2025-042-SITE05-0030,1,ALT,Alanine aminotransferase,29.57,U/L,29.57,U/L,NORMAL,4,Week 8,2025-10-17
CLIN-2025-042,LB,CLIN-2025-042-SITE05-0030,2,AST,Aspartate aminotransferase,8.44,U/L,8.44,U/L,NORMAL,4,Week 8,2025-10-17
CLIN-2025-042,LB,CLIN-2025-042-SITE05-0030,3,BILI,Bilirubin total,0.51,mg/dL,0.51,mg/dL,NORMAL,4,Week 8,2025-10-17
CLIN-2025-042,LB,CLIN-2025-042-SITE05-0030,4,CREAT,Creatinine,0.80,mg/dL,0.8,mg/dL,NORMAL,4,Week 8,2025-10-17
CLIN-2025-042,LB,CLIN-2025-042-SITE05-0030,5,HGB,Hemoglobin,14.93,g/dL,14.93,g/dL,NORMAL,4,Week 8,2025-10-17
CLIN-2025-042,LB,CLIN-2025-042-SITE05-0030,6,WBC,White blood cell count,5.90,K/uL,5.9,K/uL,NORMAL,4,Week 8,2025-10-17
CLIN-2025-042,LB,CLIN-2025-042-SITE05-0030,7,PLT,Platelet count,321.52,K/uL,321.52,K/uL,NORMAL,4,Week 8,2025-10-17
CLIN-2025-042,LB,CLIN-2025-042-SITE05-0030,8,GLUC,Glucose,36.63,mg/dL,36.63,mg/dL,LOW,4,Week 8,2025-10-17
CLIN-2025-042,LB,CLIN-2025-042-SITE01-0031,1,ALT,Alanine aminotransferase,29.89,U/L,29.89,U/L,NORMAL,1,Screening,2025-06-09
CLIN-2025-042,LB,CLIN-2025-042-SITE01-0031,2,AST,Aspartate aminotransferase,26.44,U/L,26.44,U/L,NORMAL,1,Screening,2025-06-09
CLIN-2025-042,LB,CLIN-2025-042-SITE01-0031,3,BILI,Bilirubin total,1.96,mg/dL,1.96,mg/dL,HIGH,1,Screening,2025-06-09
CLIN-2025-042,LB,CLIN-2025-042-SITE01-0031,4,CREAT,Creatinine,0.59,mg/dL,0.59,mg/dL,LOW,1,Screening,2025-06-09
CLIN-2025-042,LB,CLIN-2025-042-SITE01-0031,5,HGB,Hemoglobin,15.07,g/dL,15.07,g/dL,NORMAL,1,Screening,2025-06-09
CLIN-2025-042,LB,CLIN-2025-042-SITE01-0031,6,WBC,White blood cell count,2.37,K/uL,2.37,K/uL,LOW,1,Screening,2025-06-09
CLIN-2025-042,LB,CLIN-2025-042-SITE01-0031,7,PLT,Platelet count,469.74,K/uL,469.74,K/uL,HIGH,1,Screening,2025-06-09
CLIN-2025-042,LB,CLIN-2025-042-SITE01-0031,8,GLUC,Glucose,88.48,mg/dL,88.48,mg/dL,NORMAL,1,Screening,2025-06-09
CLIN-2025-042,LB,CLIN-2025-042-SITE01-0031,1,ALT,Alanine aminotransferase,33.72,U/L,33.72,U/L,NORMAL,2,Baseline,2025-08-11
CLIN-2025-042,LB,CLIN-2025-042-SITE01-0031,2,AST,Aspartate aminotransferase,20.14,U/L,20.14,U/L,NORMAL,2,Baseline,2025-08-11
CLIN-2025-042,LB,CLIN-2025-042-SITE01-0031,3,BILI,Bilirubin total,0.47,mg/dL,0.47,mg/dL,NORMAL,2,Baseline,2025-08-11
CLIN-2025-042,LB,CLIN-2025-042-SITE01-0031,4,CREAT,Creatinine,1.02,mg/dL,1.02,mg/dL,NORMAL,2,Baseline,2025-08-11
CLIN-2025-042,LB,CLIN-2025-042-SITE01-0031,5,HGB,Hemoglobin,19.50,g/dL,19.5,g/dL,HIGH,2,Baseline,2025-08-11
CLIN-2025-042,LB,CLIN-2025-042-SITE01-0031,6,WBC,White blood cell count,2.16,K/uL,2.16,K/uL,LOW,2,Baseline,2025-08-11
CLIN-2025-042,LB,CLIN-2025-042-SITE01-0031,7,PLT,Platelet count,270.21,K/uL,270.21,K/uL,NORMAL,2,Baseline,2025-08-11
CLIN-2025-042,LB,CLIN-2025-042-SITE01-0031,8,GLUC,Glucose,83.59,mg/dL,83.59,mg/dL,NORMAL,2,Baseline,2025-08-11
CLIN-2025-042,LB,CLIN-2025-042-SITE01-0031,1,ALT,Alanine aminotransferase,2.31,U/L,2.31,U/L,LOW,3,Week 4,2025-09-08
CLIN-2025-042,LB,CLIN-2025-042-SITE01-0031,2,AST,Aspartate aminotransferase,21.10,U/L,21.1,U/L,NORMAL,3,Week 4,2025-09-08
CLIN-2025-042,LB,CLIN-2025-042-SITE01-0031,3,BILI,Bilirubin total,0.10,mg/dL,0.1,mg/dL,LOW,3,Week 4,2025-09-08
CLIN-2025-042,LB,CLIN-2025-042-SITE01-0031,4,CREAT,Creatinine,1.00,mg/dL,1.0,mg/dL,NORMAL,3,Week 4,2025-09-08
CLIN-2025-042,LB,CLIN-2025-042-SITE01-0031,5,HGB,Hemoglobin,15.91,g/dL,15.91,g/dL,NORMAL,3,Week 4,2025-09-08
CLIN-2025-042,LB,CLIN-2025-042-SITE01-0031,6,WBC,White blood cell count,8.79,K/uL,8.79,K/uL,NORMAL,3,Week 4,2025-09-08
CLIN-2025-042,LB,CLIN-2025-042-SITE01-0031,7,PLT,Platelet count,691.07,K/uL,691.07,K/uL,HIGH,3,Week 4,2025-09-08
CLIN-2025-042,LB,CLIN-2025-042-SITE01-0031,8,GLUC,Glucose,97.57,mg/dL,97.57,mg/dL,NORMAL,3,Week 4,2025-09-08
CLIN-2025-042,LB,CLIN-2025-042-SITE01-0031,1,ALT,Alanine aminotransferase,29.16,U/L,29.16,U/L,NORMAL,4,Week 8,2025-10-06
CLIN-2025-042,LB,CLIN-2025-042-SITE01-0031,2,AST,Aspartate aminotransferase,18.67,U/L,18.67,U/L,NORMAL,4,Week 8,2025-10-06
CLIN-2025-042,LB,CLIN-2025-042-SITE01-0031,3,BILI,Bilirubin total,1.08,mg/dL,1.08,mg/dL,NORMAL,4,Week 8,2025-10-06
CLIN-2025-042,LB,CLIN-2025-042-SITE01-0031,4,CREAT,Creatinine,1.14,mg/dL,1.14,mg/dL,NORMAL,4,Week 8,2025-10-06
CLIN-2025-042,LB,CLIN-2025-042-SITE01-0031,5,HGB,Hemoglobin,14.53,g/dL,14.53,g/dL,NORMAL,4,Week 8,2025-10-06
CLIN-2025-042,LB,CLIN-2025-042-SITE01-0031,6,WBC,White blood cell count,6.73,K/uL,6.73,K/uL,NORMAL,4,Week 8,2025-10-06
CLIN-2025-042,LB,CLIN-2025-042-SITE01-0031,7,PLT,Platelet count,156.65,K/uL,156.65,K/uL,NORMAL,4,Week 8,2025-10-06
CLIN-2025-042,LB,CLIN-2025-042-SITE01-0031,8,GLUC,Glucose,85.23,mg/dL,85.23,mg/dL,NORMAL,4,Week 8,2025-10-06
CLIN-2025-042,LB,CLIN-2025-042-SITE02-0032,1,ALT,Alanine aminotransferase,56.84,U/L,56.84,U/L,HIGH,1,Screening,2025-02-09
CLIN-2025-042,LB,CLIN-2025-042-SITE02-0032,2,AST,Aspartate aminotransferase,29.71,U/L,29.71,U/L,NORMAL,1,Screening,2025-02-09
CLIN-2025-042,LB,CLIN-2025-042-SITE02-0032,3,BILI,Bilirubin total,0.56,mg/dL,0.56,mg/dL,NORMAL,1,Screening,2025-02-09
CLIN-2025-042,LB,CLIN-2025-042-SITE02-0032,4,CREAT,Creatinine,0.55,mg/dL,0.55,mg/dL,LOW,1,Screening,2025-02-09
CLIN-2025-042,LB,CLIN-2025-042-SITE02-0032,5,HGB,Hemoglobin,16.34,g/dL,16.34,g/dL,NORMAL,1,Screening,2025-02-09
CLIN-2025-042,LB,CLIN-2025-042-SITE02-0032,6,WBC,White blood cell count,7.45,K/uL,7.45,K/uL,NORMAL,1,Screening,2025-02-09
CLIN-2025-042,LB,CLIN-2025-042-SITE02-0032,7,PLT,Platelet count,184.65,K/uL,184.65,K/uL,NORMAL,1,Screening,2025-02-09
CLIN-2025-042,LB,CLIN-2025-042-SITE02-0032,8,GLUC,Glucose,88.47,mg/dL,88.47,mg/dL,NORMAL,1,Screening,2025-02-09
CLIN-2025-042,LB,CLIN-2025-042-SITE02-0032,1,ALT,Alanine aminotransferase,5.43,U/L,5.43,U/L,LOW,2,Baseline,2025-04-13
CLIN-2025-042,LB,CLIN-2025-042-SITE02-0032,2,AST,Aspartate aminotransferase,34.72,U/L,34.72,U/L,NORMAL,2,Baseline,2025-04-13
CLIN-2025-042,LB,CLIN-2025-042-SITE02-0032,3,BILI,Bilirubin total,0.55,mg/dL,0.55,mg/dL,NORMAL,2,Baseline,2025-04-13
CLIN-2025-042,LB,CLIN-2025-042-SITE02-0032,4,CREAT,Creatinine,0.76,mg/dL,0.76,mg/dL,NORMAL,2,Baseline,2025-04-13
CLIN-2025-042,LB,CLIN-2025-042-SITE02-0032,5,HGB,Hemoglobin,15.59,g/dL,15.59,g/dL,NORMAL,2,Baseline,2025-04-13
CLIN-2025-042,LB,CLIN-2025-042-SITE02-0032,6,WBC,White blood cell count,3.97,K/uL,3.97,K/uL,LOW,2,Baseline,2025-04-13
CLIN-2025-042,LB,CLIN-2025-042-SITE02-0032,7,PLT,Platelet count,356.21,K/uL,356.21,K/uL,NORMAL,2,Baseline,2025-04-13
CLIN-2025-042,LB,CLIN-2025-042-SITE02-0032,8,GLUC,Glucose,85.45,mg/dL,85.45,mg/dL,NORMAL,2,Baseline,2025-04-13
CLIN-2025-042,LB,CLIN-2025-042-SITE02-0032,1,ALT,Alanine aminotransferase,14.80,U/L,14.8,U/L,NORMAL,3,Week 4,2025-05-11
CLIN-2025-042,LB,CLIN-2025-042-SITE02-0032,2,AST,Aspartate aminotransferase,7.49,U/L,7.49,U/L,LOW,3,Week 4,2025-05-11
CLIN-2025-042,LB,CLIN-2025-042-SITE02-0032,3,BILI,Bilirubin total,0.46,mg/dL,0.46,mg/dL,NORMAL,3,Week 4,2025-05-11
CLIN-2025-042,LB,CLIN-2025-042-SITE02-0032,4,CREAT,Creatinine,0.60,mg/dL,0.6,mg/dL,LOW,3,Week 4,2025-05-11
CLIN-2025-042,LB,CLIN-2025-042-SITE02-0032,5,HGB,Hemoglobin,16.89,g/dL,16.89,g/dL,NORMAL,3,Week 4,2025-05-11
CLIN-2025-042,LB,CLIN-2025-042-SITE02-0032,6,WBC,White blood cell count,9.51,K/uL,9.51,K/uL,NORMAL,3,Week 4,2025-05-11
CLIN-2025-042,LB,CLIN-2025-042-SITE02-0032,7,PLT,Platelet count,311.82,K/uL,311.82,K/uL,NORMAL,3,Week 4,2025-05-11
CLIN-2025-042,LB,CLIN-2025-042-SITE02-0032,8,GLUC,Glucose,85.58,mg/dL,85.58,mg/dL,NORMAL,3,Week 4,2025-05-11
CLIN-2025-042,LB,CLIN-2025-042-SITE02-0032,1,ALT,Alanine aminotransferase,11.38,U/L,11.38,U/L,NORMAL,4,Week 8,2025-06-08
CLIN-2025-042,LB,CLIN-2025-042-SITE02-0032,2,AST,Aspartate aminotransferase,64.22,U/L,64.22,U/L,HIGH,4,Week 8,2025-06-08
CLIN-2025-042,LB,CLIN-2025-042-SITE02-0032,3,BILI,Bilirubin total,1.93,mg/dL,1.93,mg/dL,HIGH,4,Week 8,2025-06-08
CLIN-2025-042,LB,CLIN-2025-042-SITE02-0032,4,CREAT,Creatinine,0.92,mg/dL,0.92,mg/dL,NORMAL,4,Week 8,2025-06-08
CLIN-2025-042,LB,CLIN-2025-042-SITE02-0032,5,HGB,Hemoglobin,14.94,g/dL,14.94,g/dL,NORMAL,4,Week 8,2025-06-08
CLIN-2025-042,LB,CLIN-2025-042-SITE02-0032,6,WBC,White blood cell count,3.01,K/uL,3.01,K/uL,LOW,4,Week 8,2025-06-08
CLIN-2025-042,LB,CLIN-2025-042-SITE02-0032,7,PLT,Platelet count,259.06,K/uL,259.06,K/uL,NORMAL,4,Week 8,2025-06-08
CLIN-2025-042,LB,CLIN-2025-042-SITE02-0032,8,GLUC,Glucose,80.20,mg/dL,80.2,mg/dL,NORMAL,4,Week 8,2025-06-08
CLIN-2025-042,LB,CLIN-2025-042-SITE03-0033,1,ALT,Alanine aminotransferase,30.64,U/L,30.64,U/L,NORMAL,1,Screening,2025-06-01
CLIN-2025-042,LB,CLIN-2025-042-SITE03-0033,2,AST,Aspartate aminotransferase,10.28,U/L,10.28,U/L,NORMAL,1,Screening,2025-06-01
CLIN-2025-042,LB,CLIN-2025-042-SITE03-0033,3,BILI,Bilirubin total,0.10,mg/dL,0.1,mg/dL,LOW,1,Screening,2025-06-01
CLIN-2025-042,LB,CLIN-2025-042-SITE03-0033,4,CREAT,Creatinine,1.03,mg/dL,1.03,mg/dL,NORMAL,1,Screening,2025-06-01
CLIN-2025-042,LB,CLIN-2025-042-SITE03-0033,5,HGB,Hemoglobin,20.72,g/dL,20.72,g/dL,HIGH,1,Screening,2025-06-01
CLIN-2025-042,LB,CLIN-2025-042-SITE03-0033,6,WBC,White blood cell count,7.84,K/uL,7.84,K/uL,NORMAL,1,Screening,2025-06-01
CLIN-2025-042,LB,CLIN-2025-042-SITE03-0033,7,PLT,Platelet count,319.73,K/uL,319.73,K/uL,NORMAL,1,Screening,2025-06-01
CLIN-2025-042,LB,CLIN-2025-042-SITE03-0033,8,GLUC,Glucose,81.90,mg/dL,81.9,mg/dL,NORMAL,1,Screening,2025-06-01
CLIN-2025-042,LB,CLIN-2025-042-SITE03-0033,1,ALT,Alanine aminotransferase,23.42,U/L,23.42,U/L,NORMAL,2,Baseline,2025-08-03
CLIN-2025-042,LB,CLIN-2025-042-SITE03-0033,2,AST,Aspartate aminotransferase,27.16,U/L,27.16,U/L,NORMAL,2,Baseline,2025-08-03
CLIN-2025-042,LB,CLIN-2025-042-SITE03-0033,3,BILI,Bilirubin total,0.10,mg/dL,0.1,mg/dL,LOW,2,Baseline,2025-08-03
CLIN-2025-042,LB,CLIN-2025-042-SITE03-0033,4,CREAT,Creatinine,0.79,mg/dL,0.79,mg/dL,NORMAL,2,Baseline,2025-08-03
CLIN-2025-042,LB,CLIN-2025-042-SITE03-0033,5,HGB,Hemoglobin,21.53,g/dL,21.53,g/dL,HIGH,2,Baseline,2025-08-03
CLIN-2025-042,LB,CLIN-2025-042-SITE03-0033,6,WBC,White blood cell count,7.30,K/uL,7.3,K/uL,NORMAL,2,Baseline,2025-08-03
CLIN-2025-042,LB,CLIN-2025-042-SITE03-0033,7,PLT,Platelet count,466.48,K/uL,466.48,K/uL,HIGH,2,Baseline,2025-08-03
CLIN-2025-042,LB,CLIN-2025-042-SITE03-0033,8,GLUC,Glucose,77.61,mg/dL,77.61,mg/dL,NORMAL,2,Baseline,2025-08-03
CLIN-2025-042,LB,CLIN-2025-042-SITE03-0033,1,ALT,Alanine aminotransferase,40.13,U/L,40.13,U/L,NORMAL,3,Week 4,2025-08-31
CLIN-2025-042,LB,CLIN-2025-042-SITE03-0033,2,AST,Aspartate aminotransferase,7.40,U/L,7.4,U/L,LOW,3,Week 4,2025-08-31
CLIN-2025-042,LB,CLIN-2025-042-SITE03-0033,3,BILI,Bilirubin total,1.79,mg/dL,1.79,mg/dL,HIGH,3,Week 4,2025-08-31
CLIN-2025-042,LB,CLIN-2025-042-SITE03-0033,4,CREAT,Creatinine,0.84,mg/dL,0.84,mg/dL,NORMAL,3,Week 4,2025-08-31
CLIN-2025-042,LB,CLIN-2025-042-SITE03-0033,5,HGB,Hemoglobin,14.55,g/dL,14.55,g/dL,NORMAL,3,Week 4,2025-08-31
CLIN-2025-042,LB,CLIN-2025-042-SITE03-0033,6,WBC,White blood cell count,7.44,K/uL,7.44,K/uL,NORMAL,3,Week 4,2025-08-31
CLIN-2025-042,LB,CLIN-2025-042-SITE03-0033,7,PLT,Platelet count,162.55,K/uL,162.55,K/uL,NORMAL,3,Week 4,2025-08-31
CLIN-2025-042,LB,CLIN-2025-042-SITE03-0033,8,GLUC,Glucose,74.51,mg/dL,74.51,mg/dL,NORMAL,3,Week 4,2025-08-31
CLIN-2025-042,LB,CLIN-2025-042-SITE03-0033,1,ALT,Alanine aminotransferase,28.89,U/L,28.89,U/L,NORMAL,4,Week 8,2025-09-28
CLIN-2025-042,LB,CLIN-2025-042-SITE03-0033,2,AST,Aspartate aminotransferase,25.57,U/L,25.57,U/L,NORMAL,4,Week 8,2025-09-28
CLIN-2025-042,LB,CLIN-2025-042-SITE03-0033,3,BILI,Bilirubin total,1.20,mg/dL,1.2,mg/dL,NORMAL,4,Week 8,2025-09-28
CLIN-2025-042,LB,CLIN-2025-042-SITE03-0033,4,CREAT,Creatinine,0.72,mg/dL,0.72,mg/dL,NORMAL,4,Week 8,2025-09-28
CLIN-2025-042,LB,CLIN-2025-042-SITE03-0033,5,HGB,Hemoglobin,15.61,g/dL,15.61,g/dL,NORMAL,4,Week 8,2025-09-28
CLIN-2025-042,LB,CLIN-2025-042-SITE03-0033,6,WBC,White blood cell count,7.20,K/uL,7.2,K/uL,NORMAL,4,Week 8,2025-09-28
CLIN-2025-042,LB,CLIN-2025-042-SITE03-0033,7,PLT,Platelet count,410.26,K/uL,410.26,K/uL,NORMAL,4,Week 8,2025-09-28
CLIN-2025-042,LB,CLIN-2025-042-SITE03-0033,8,GLUC,Glucose,91.11,mg/dL,91.11,mg/dL,NORMAL,4,Week 8,2025-09-28
CLIN-2025-042,LB,CLIN-2025-042-SITE04-0034,1,ALT,Alanine aminotransferase,39.89,U/L,39.89,U/L,NORMAL,1,Screening,2025-02-27
CLIN-2025-042,LB,CLIN-2025-042-SITE04-0034,2,AST,Aspartate aminotransferase,8.94,U/L,8.94,U/L,LOW,1,Screening,2025-02-27
CLIN-2025-042,LB,CLIN-2025-042-SITE04-0034,3,BILI,Bilirubin total,2.73,mg/dL,2.73,mg/dL,HIGH,1,Screening,2025-02-27
CLIN-2025-042,LB,CLIN-2025-042-SITE04-0034,4,CREAT,Creatinine,1.22,mg/dL,1.22,mg/dL,NORMAL,1,Screening,2025-02-27
CLIN-2025-042,LB,CLIN-2025-042-SITE04-0034,5,HGB,Hemoglobin,13.54,g/dL,13.54,g/dL,NORMAL,1,Screening,2025-02-27
CLIN-2025-042,LB,CLIN-2025-042-SITE04-0034,6,WBC,White blood cell count,7.27,K/uL,7.27,K/uL,NORMAL,1,Screening,2025-02-27
CLIN-2025-042,LB,CLIN-2025-042-SITE04-0034,7,PLT,Platelet count,321.83,K/uL,321.83,K/uL,NORMAL,1,Screening,2025-02-27
CLIN-2025-042,LB,CLIN-2025-042-SITE04-0034,8,GLUC,Glucose,98.34,mg/dL,98.34,mg/dL,NORMAL,1,Screening,2025-02-27
CLIN-2025-042,LB,CLIN-2025-042-SITE04-0034,1,ALT,Alanine aminotransferase,28.07,U/L,28.07,U/L,NORMAL,2,Baseline,2025-05-01
CLIN-2025-042,LB,CLIN-2025-042-SITE04-0034,2,AST,Aspartate aminotransferase,29.91,U/L,29.91,U/L,NORMAL,2,Baseline,2025-05-01
CLIN-2025-042,LB,CLIN-2025-042-SITE04-0034,3,BILI,Bilirubin total,0.34,mg/dL,0.34,mg/dL,NORMAL,2,Baseline,2025-05-01
CLIN-2025-042,LB,CLIN-2025-042-SITE04-0034,4,CREAT,Creatinine,0.83,mg/dL,0.83,mg/dL,NORMAL,2,Baseline,2025-05-01
CLIN-2025-042,LB,CLIN-2025-042-SITE04-0034,5,HGB,Hemoglobin,14.60,g/dL,14.6,g/dL,NORMAL,2,Baseline,2025-05-01
CLIN-2025-042,LB,CLIN-2025-042-SITE04-0034,6,WBC,White blood cell count,8.11,K/uL,8.11,K/uL,NORMAL,2,Baseline,2025-05-01
CLIN-2025-042,LB,CLIN-2025-042-SITE04-0034,7,PLT,Platelet count,336.75,K/uL,336.75,K/uL,NORMAL,2,Baseline,2025-05-01
CLIN-2025-042,LB,CLIN-2025-042-SITE04-0034,8,GLUC,Glucose,136.10,mg/dL,136.1,mg/dL,HIGH,2,Baseline,2025-05-01
CLIN-2025-042,LB,CLIN-2025-042-SITE04-0034,1,ALT,Alanine aminotransferase,5.90,U/L,5.9,U/L,LOW,3,Week 4,2025-05-29
CLIN-2025-042,LB,CLIN-2025-042-SITE04-0034,2,AST,Aspartate aminotransferase,20.34,U/L,20.34,U/L,NORMAL,3,Week 4,2025-05-29
CLIN-2025-042,LB,CLIN-2025-042-SITE04-0034,3,BILI,Bilirubin total,0.10,mg/dL,0.1,mg/dL,LOW,3,Week 4,2025-05-29
CLIN-2025-042,LB,CLIN-2025-042-SITE04-0034,4,CREAT,Creatinine,0.98,mg/dL,0.98,mg/dL,NORMAL,3,Week 4,2025-05-29
CLIN-2025-042,LB,CLIN-2025-042-SITE04-0034,5,HGB,Hemoglobin,15.64,g/dL,15.64,g/dL,NORMAL,3,Week 4,2025-05-29
CLIN-2025-042,LB,CLIN-2025-042-SITE04-0034,6,WBC,White blood cell count,4.47,K/uL,4.47,K/uL,NORMAL,3,Week 4,2025-05-29
CLIN-2025-042,LB,CLIN-2025-042-SITE04-0034,7,PLT,Platelet count,165.38,K/uL,165.38,K/uL,NORMAL,3,Week 4,2025-05-29
CLIN-2025-042,LB,CLIN-2025-042-SITE04-0034,8,GLUC,Glucose,86.88,mg/dL,86.88,mg/dL,NORMAL,3,Week 4,2025-05-29
CLIN-2025-042,LB,CLIN-2025-042-SITE04-0034,1,ALT,Alanine aminotransferase,31.99,U/L,31.99,U/L,NORMAL,4,Week 8,2025-06-26
CLIN-2025-042,LB,CLIN-2025-042-SITE04-0034,2,AST,Aspartate aminotransferase,44.43,U/L,44.43,U/L,HIGH,4,Week 8,2025-06-26
CLIN-2025-042,LB,CLIN-2025-042-SITE04-0034,3,BILI,Bilirubin total,0.76,mg/dL,0.76,mg/dL,NORMAL,4,Week 8,2025-06-26
CLIN-2025-042,LB,CLIN-2025-042-SITE04-0034,4,CREAT,Creatinine,1.03,mg/dL,1.03,mg/dL,NORMAL,4,Week 8,2025-06-26
CLIN-2025-042,LB,CLIN-2025-042-SITE04-0034,5,HGB,Hemoglobin,15.55,g/dL,15.55,g/dL,NORMAL,4,Week 8,2025-06-26
CLIN-2025-042,LB,CLIN-2025-042-SITE04-0034,6,WBC,White blood cell count,6.50,K/uL,6.5,K/uL,NORMAL,4,Week 8,2025-06-26
CLIN-2025-042,LB,CLIN-2025-042-SITE04-0034,7,PLT,Platelet count,227.03,K/uL,227.03,K/uL,NORMAL,4,Week 8,2025-06-26
CLIN-2025-042,LB,CLIN-2025-042-SITE04-0034,8,GLUC,Glucose,92.97,mg/dL,92.97,mg/dL,NORMAL,4,Week 8,2025-06-26
CLIN-2025-042,LB,CLIN-2025-042-SITE05-0035,1,ALT,Alanine aminotransferase,32.67,U/L,32.67,U/L,NORMAL,1,Screening,2025-03-09
CLIN-2025-042,LB,CLIN-2025-042-SITE05-0035,2,AST,Aspartate aminotransferase,6.38,U/L,6.38,U/L,LOW,1,Screening,2025-03-09
CLIN-2025-042,LB,CLIN-2025-042-SITE05-0035,3,BILI,Bilirubin total,0.62,mg/dL,0.62,mg/dL,NORMAL,1,Screening,2025-03-09
CLIN-2025-042,LB,CLIN-2025-042-SITE05-0035,4,CREAT,Creatinine,0.75,mg/dL,0.75,mg/dL,NORMAL,1,Screening,2025-03-09
CLIN-2025-042,LB,CLIN-2025-042-SITE05-0035,5,HGB,Hemoglobin,14.57,g/dL,14.57,g/dL,NORMAL,1,Screening,2025-03-09
CLIN-2025-042,LB,CLIN-2025-042-SITE05-0035,6,WBC,White blood cell count,7.50,K/uL,7.5,K/uL,NORMAL,1,Screening,2025-03-09
CLIN-2025-042,LB,CLIN-2025-042-SITE05-0035,7,PLT,Platelet count,336.63,K/uL,336.63,K/uL,NORMAL,1,Screening,2025-03-09
CLIN-2025-042,LB,CLIN-2025-042-SITE05-0035,8,GLUC,Glucose,90.01,mg/dL,90.01,mg/dL,NORMAL,1,Screening,2025-03-09
CLIN-2025-042,LB,CLIN-2025-042-SITE05-0035,1,ALT,Alanine aminotransferase,12.54,U/L,12.54,U/L,NORMAL,2,Baseline,2025-05-11
CLIN-2025-042,LB,CLIN-2025-042-SITE05-0035,2,AST,Aspartate aminotransferase,9.61,U/L,9.61,U/L,NORMAL,2,Baseline,2025-05-11
CLIN-2025-042,LB,CLIN-2025-042-SITE05-0035,3,BILI,Bilirubin total,0.72,mg/dL,0.72,mg/dL,NORMAL,2,Baseline,2025-05-11
CLIN-2025-042,LB,CLIN-2025-042-SITE05-0035,4,CREAT,Creatinine,0.89,mg/dL,0.89,mg/dL,NORMAL,2,Baseline,2025-05-11
CLIN-2025-042,LB,CLIN-2025-042-SITE05-0035,5,HGB,Hemoglobin,16.02,g/dL,16.02,g/dL,NORMAL,2,Baseline,2025-05-11
CLIN-2025-042,LB,CLIN-2025-042-SITE05-0035,6,WBC,White blood cell count,8.91,K/uL,8.91,K/uL,NORMAL,2,Baseline,2025-05-11
CLIN-2025-042,LB,CLIN-2025-042-SITE05-0035,7,PLT,Platelet count,310.57,K/uL,310.57,K/uL,NORMAL,2,Baseline,2025-05-11
CLIN-2025-042,LB,CLIN-2025-042-SITE05-0035,8,GLUC,Glucose,22.00,mg/dL,22.0,mg/dL,LOW,2,Baseline,2025-05-11
CLIN-2025-042,LB,CLIN-2025-042-SITE05-0035,1,ALT,Alanine aminotransferase,42.82,U/L,42.82,U/L,NORMAL,3,Week 4,2025-06-08
CLIN-2025-042,LB,CLIN-2025-042-SITE05-0035,2,AST,Aspartate aminotransferase,60.74,U/L,60.74,U/L,HIGH,3,Week 4,2025-06-08
CLIN-2025-042,LB,CLIN-2025-042-SITE05-0035,3,BILI,Bilirubin total,0.41,mg/dL,0.41,mg/dL,NORMAL,3,Week 4,2025-06-08
CLIN-2025-042,LB,CLIN-2025-042-SITE05-0035,4,CREAT,Creatinine,1.08,mg/dL,1.08,mg/dL,NORMAL,3,Week 4,2025-06-08
CLIN-2025-042,LB,CLIN-2025-042-SITE05-0035,5,HGB,Hemoglobin,15.71,g/dL,15.71,g/dL,NORMAL,3,Week 4,2025-06-08
CLIN-2025-042,LB,CLIN-2025-042-SITE05-0035,6,WBC,White blood cell count,2.95,K/uL,2.95,K/uL,LOW,3,Week 4,2025-06-08
CLIN-2025-042,LB,CLIN-2025-042-SITE05-0035,7,PLT,Platelet count,359.04,K/uL,359.04,K/uL,NORMAL,3,Week 4,2025-06-08
CLIN-2025-042,LB,CLIN-2025-042-SITE05-0035,8,GLUC,Glucose,28.16,mg/dL,28.16,mg/dL,LOW,3,Week 4,2025-06-08
CLIN-2025-042,LB,CLIN-2025-042-SITE05-0035,1,ALT,Alanine aminotransferase,28.27,U/L,28.27,U/L,NORMAL,4,Week 8,2025-07-06
CLIN-2025-042,LB,CLIN-2025-042-SITE05-0035,2,AST,Aspartate aminotransferase,42.33,U/L,42.33,U/L,HIGH,4,Week 8,2025-07-06
CLIN-2025-042,LB,CLIN-2025-042-SITE05-0035,3,BILI,Bilirubin total,0.78,mg/dL,0.78,mg/dL,NORMAL,4,Week 8,2025-07-06
CLIN-2025-042,LB,CLIN-2025-042-SITE05-0035,4,CREAT,Creatinine,0.85,mg/dL,0.85,mg/dL,NORMAL,4,Week 8,2025-07-06
CLIN-2025-042,LB,CLIN-2025-042-SITE05-0035,5,HGB,Hemoglobin,13.60,g/dL,13.6,g/dL,NORMAL,4,Week 8,2025-07-06
CLIN-2025-042,LB,CLIN-2025-042-SITE05-0035,6,WBC,White blood cell count,7.62,K/uL,7.62,K/uL,NORMAL,4,Week 8,2025-07-06
CLIN-2025-042,LB,CLIN-2025-042-SITE05-0035,7,PLT,Platelet count,271.79,K/uL,271.79,K/uL,NORMAL,4,Week 8,2025-07-06
CLIN-2025-042,LB,CLIN-2025-042-SITE05-0035,8,GLUC,Glucose,92.84,mg/dL,92.84,mg/dL,NORMAL,4,Week 8,2025-07-06
CLIN-2025-042,LB,CLIN-2025-042-SITE01-0036,1,ALT,Alanine aminotransferase,31.87,U/L,31.87,U/L,NORMAL,1,Screening,2025-05-04
CLIN-2025-042,LB,CLIN-2025-042-SITE01-0036,2,AST,Aspartate aminotransferase,30.05,U/L,30.05,U/L,NORMAL,1,Screening,2025-05-04
CLIN-2025-042,LB,CLIN-2025-042-SITE01-0036,3,BILI,Bilirubin total,0.90,mg/dL,0.9,mg/dL,NORMAL,1,Screening,2025-05-04
CLIN-2025-042,LB,CLIN-2025-042-SITE01-0036,4,CREAT,Creatinine,0.45,mg/dL,0.45,mg/dL,LOW,1,Screening,2025-05-04
CLIN-2025-042,LB,CLIN-2025-042-SITE01-0036,5,HGB,Hemoglobin,16.81,g/dL,16.81,g/dL,NORMAL,1,Screening,2025-05-04
CLIN-2025-042,LB,CLIN-2025-042-SITE01-0036,6,WBC,White blood cell count,11.07,K/uL,11.07,K/uL,NORMAL,1,Screening,2025-05-04
CLIN-2025-042,LB,CLIN-2025-042-SITE01-0036,7,PLT,Platelet count,235.94,K/uL,235.94,K/uL,NORMAL,1,Screening,2025-05-04
CLIN-2025-042,LB,CLIN-2025-042-SITE01-0036,8,GLUC,Glucose,82.98,mg/dL,82.98,mg/dL,NORMAL,1,Screening,2025-05-04
CLIN-2025-042,LB,CLIN-2025-042-SITE01-0036,1,ALT,Alanine aminotransferase,38.31,U/L,38.31,U/L,NORMAL,2,Baseline,2025-07-06
CLIN-2025-042,LB,CLIN-2025-042-SITE01-0036,2,AST,Aspartate aminotransferase,15.86,U/L,15.86,U/L,NORMAL,2,Baseline,2025-07-06
CLIN-2025-042,LB,CLIN-2025-042-SITE01-0036,3,BILI,Bilirubin total,0.10,mg/dL,0.09757623263770353,mg/dL,LOW,2,Baseline,2025-07-06
CLIN-2025-042,LB,CLIN-2025-042-SITE01-0036,4,CREAT,Creatinine,0.72,mg/dL,0.72,mg/dL,NORMAL,2,Baseline,2025-07-06
CLIN-2025-042,LB,CLIN-2025-042-SITE01-0036,5,HGB,Hemoglobin,14.58,g/dL,14.58,g/dL,NORMAL,2,Baseline,2025-07-06
CLIN-2025-042,LB,CLIN-2025-042-SITE01-0036,6,WBC,White blood cell count,9.41,K/uL,9.41,K/uL,NORMAL,2,Baseline,2025-07-06
CLIN-2025-042,LB,CLIN-2025-042-SITE01-0036,7,PLT,Platelet count,113.38,K/uL,113.38,K/uL,LOW,2,Baseline,2025-07-06
CLIN-2025-042,LB,CLIN-2025-042-SITE01-0036,8,GLUC,Glucose,101.79,mg/dL,101.79,mg/dL,NORMAL,2,Baseline,2025-07-06
CLIN-2025-042,LB,CLIN-2025-042-SITE01-0036,1,ALT,Alanine aminotransferase,38.93,U/L,38.93,U/L,NORMAL,3,Week 4,2025-08-03
CLIN-2025-042,LB,CLIN-2025-042-SITE01-0036,2,AST,Aspartate aminotransferase,17.08,U/L,17.08,U/L,NORMAL,3,Week 4,2025-08-03
CLIN-2025-042,LB,CLIN-2025-042-SITE01-0036,3,BILI,Bilirubin total,0.10,mg/dL,0.1,mg/dL,LOW,3,Week 4,2025-08-03
CLIN-2025-042,LB,CLIN-2025-042-SITE01-0036,4,CREAT,Creatinine,0.93,mg/dL,0.93,mg/dL,NORMAL,3,Week 4,2025-08-03
CLIN-2025-042,LB,CLIN-2025-042-SITE01-0036,5,HGB,Hemoglobin,7.09,g/dL,7.09,g/dL,LOW,3,Week 4,2025-08-03
CLIN-2025-042,LB,CLIN-2025-042-SITE01-0036,6,WBC,White blood cell count,9.62,K/uL,9.62,K/uL,NORMAL,3,Week 4,2025-08-03
CLIN-2025-042,LB,CLIN-2025-042-SITE01-0036,7,PLT,Platelet count,374.33,K/uL,374.33,K/uL,NORMAL,3,Week 4,2025-08-03
CLIN-2025-042,LB,CLIN-2025-042-SITE01-0036,8,GLUC,Glucose,82.36,mg/dL,82.36,mg/dL,NORMAL,3,Week 4,2025-08-03
CLIN-2025-042,LB,CLIN-2025-042-SITE01-0036,1,ALT,Alanine aminotransferase,22.59,U/L,22.59,U/L,NORMAL,4,Week 8,2025-08-31
CLIN-2025-042,LB,CLIN-2025-042-SITE01-0036,2,AST,Aspartate aminotransferase,7.11,U/L,7.11,U/L,LOW,4,Week 8,2025-08-31
CLIN-2025-042,LB,CLIN-2025-042-SITE01-0036,3,BILI,Bilirubin total,0.49,mg/dL,0.49,mg/dL,NORMAL,4,Week 8,2025-08-31
CLIN-2025-042,LB,CLIN-2025-042-SITE01-0036,4,CREAT,Creatinine,0.54,mg/dL,0.54,mg/dL,LOW,4,Week 8,2025-08-31
CLIN-2025-042,LB,CLIN-2025-042-SITE01-0036,5,HGB,Hemoglobin,19.09,g/dL,19.09,g/dL,HIGH,4,Week 8,2025-08-31
CLIN-2025-042,LB,CLIN-2025-042-SITE01-0036,6,WBC,White blood cell count,9.39,K/uL,9.39,K/uL,NORMAL,4,Week 8,2025-08-31
CLIN-2025-042,LB,CLIN-2025-042-SITE01-0036,7,PLT,Platelet count,346.98,K/uL,346.98,K/uL,NORMAL,4,Week 8,2025-08-31
CLIN-2025-042,LB,CLIN-2025-042-SITE01-0036,8,GLUC,Glucose,79.69,mg/dL,79.69,mg/dL,NORMAL,4,Week 8,2025-08-31
CLIN-2025-042,LB,CLIN-2025-042-SITE02-0037,1,ALT,Alanine aminotransferase,14.62,U/L,14.62,U/L,NORMAL,1,Screening,2025-04-12
CLIN-2025-042,LB,CLIN-2025-042-SITE02-0037,2,AST,Aspartate aminotransferase,36.54,U/L,36.54,U/L,NORMAL,1,Screening,2025-04-12
CLIN-2025-042,LB,CLIN-2025-042-SITE02-0037,3,BILI,Bilirubin total,1.25,mg/dL,1.25,mg/dL,HIGH,1,Screening,2025-04-12
CLIN-2025-042,LB,CLIN-2025-042-SITE02-0037,4,CREAT,Creatinine,1.09,mg/dL,1.09,mg/dL,NORMAL,1,Screening,2025-04-12
CLIN-2025-042,LB,CLIN-2025-042-SITE02-0037,5,HGB,Hemoglobin,16.92,g/dL,16.92,g/dL,NORMAL,1,Screening,2025-04-12
CLIN-2025-042,LB,CLIN-2025-042-SITE02-0037,6,WBC,White blood cell count,18.45,K/uL,18.45,K/uL,HIGH,1,Screening,2025-04-12
CLIN-2025-042,LB,CLIN-2025-042-SITE02-0037,7,PLT,Platelet count,396.81,K/uL,396.81,K/uL,NORMAL,1,Screening,2025-04-12
CLIN-2025-042,LB,CLIN-2025-042-SITE02-0037,8,GLUC,Glucose,83.01,mg/dL,83.01,mg/dL,NORMAL,1,Screening,2025-04-12
CLIN-2025-042,LB,CLIN-2025-042-SITE02-0037,1,ALT,Alanine aminotransferase,55.39,U/L,55.39,U/L,NORMAL,2,Baseline,2025-06-14
CLIN-2025-042,LB,CLIN-2025-042-SITE02-0037,2,AST,Aspartate aminotransferase,26.05,U/L,26.05,U/L,NORMAL,2,Baseline,2025-06-14
CLIN-2025-042,LB,CLIN-2025-042-SITE02-0037,3,BILI,Bilirubin total,1.29,mg/dL,1.29,mg/dL,HIGH,2,Baseline,2025-06-14
CLIN-2025-042,LB,CLIN-2025-042-SITE02-0037,4,CREAT,Creatinine,1.70,mg/dL,1.7,mg/dL,HIGH,2,Baseline,2025-06-14
CLIN-2025-042,LB,CLIN-2025-042-SITE02-0037,5,HGB,Hemoglobin,14.29,g/dL,14.29,g/dL,NORMAL,2,Baseline,2025-06-14
CLIN-2025-042,LB,CLIN-2025-042-SITE02-0037,6,WBC,White blood cell count,11.18,K/uL,11.18,K/uL,HIGH,2,Baseline,2025-06-14
CLIN-2025-042,LB,CLIN-2025-042-SITE02-0037,7,PLT,Platelet count,268.44,K/uL,268.44,K/uL,NORMAL,2,Baseline,2025-06-14
CLIN-2025-042,LB,CLIN-2025-042-SITE02-0037,8,GLUC,Glucose,83.19,mg/dL,83.19,mg/dL,NORMAL,2,Baseline,2025-06-14
CLIN-2025-042,LB,CLIN-2025-042-SITE02-0037,1,ALT,Alanine aminotransferase,20.87,U/L,20.87,U/L,NORMAL,3,Week 4,2025-07-12
CLIN-2025-042,LB,CLIN-2025-042-SITE02-0037,2,AST,Aspartate aminotransferase,31.62,U/L,31.62,U/L,NORMAL,3,Week 4,2025-07-12
CLIN-2025-042,LB,CLIN-2025-042-SITE02-0037,3,BILI,Bilirubin total,0.73,mg/dL,0.73,mg/dL,NORMAL,3,Week 4,2025-07-12
CLIN-2025-042,LB,CLIN-2025-042-SITE02-0037,4,CREAT,Creatinine,1.12,mg/dL,1.12,mg/dL,NORMAL,3,Week 4,2025-07-12
CLIN-2025-042,LB,CLIN-2025-042-SITE02-0037,5,HGB,Hemoglobin,14.80,g/dL,14.8,g/dL,NORMAL,3,Week 4,2025-07-12
CLIN-2025-042,LB,CLIN-2025-042-SITE02-0037,6,WBC,White blood cell count,6.04,K/uL,6.04,K/uL,NORMAL,3,Week 4,2025-07-12
CLIN-2025-042,LB,CLIN-2025-042-SITE02-0037,7,PLT,Platelet count,250.98,K/uL,250.98,K/uL,NORMAL,3,Week 4,2025-07-12
CLIN-2025-042,LB,CLIN-2025-042-SITE02-0037,8,GLUC,Glucose,109.26,mg/dL,109.26,mg/dL,HIGH,3,Week 4,2025-07-12
CLIN-2025-042,LB,CLIN-2025-042-SITE02-0037,1,ALT,Alanine aminotransferase,6.08,U/L,6.08,U/L,LOW,4,Week 8,2025-08-09
CLIN-2025-042,LB,CLIN-2025-042-SITE02-0037,2,AST,Aspartate aminotransferase,23.49,U/L,23.49,U/L,NORMAL,4,Week 8,2025-08-09
CLIN-2025-042,LB,CLIN-2025-042-SITE02-0037,3,BILI,Bilirubin total,0.56,mg/dL,0.56,mg/dL,NORMAL,4,Week 8,2025-08-09
CLIN-2025-042,LB,CLIN-2025-042-SITE02-0037,4,CREAT,Creatinine,0.89,mg/dL,0.8676835926735371,mg/dL,NORMAL,4,Week 8,2025-08-09
CLIN-2025-042,LB,CLIN-2025-042-SITE02-0037,5,HGB,Hemoglobin,15.42,g/dL,15.42,g/dL,NORMAL,4,Week 8,2025-08-09
CLIN-2025-042,LB,CLIN-2025-042-SITE02-0037,6,WBC,White blood cell count,7.86,K/uL,7.86,K/uL,NORMAL,4,Week 8,2025-08-09
CLIN-2025-042,LB,CLIN-2025-042-SITE02-0037,7,PLT,Platelet count,267.66,K/uL,267.66,K/uL,NORMAL,4,Week 8,2025-08-09
CLIN-2025-042,LB,CLIN-2025-042-SITE02-0037,8,GLUC,Glucose,85.96,mg/dL,85.96,mg/dL,NORMAL,4,Week 8,2025-08-09
CLIN-2025-042,LB,CLIN-2025-042-SITE03-0038,1,ALT,Alanine aminotransferase,39.51,U/L,39.51,U/L,NORMAL,1,Screening,2025-01-25
CLIN-2025-042,LB,CLIN-2025-042-SITE03-0038,2,AST,Aspartate aminotransferase,31.16,U/L,31.16,U/L,NORMAL,1,Screening,2025-01-25
CLIN-2025-042,LB,CLIN-2025-042-SITE03-0038,3,BILI,Bilirubin total,0.10,mg/dL,0.1,mg/dL,NORMAL,1,Screening,2025-01-25
CLIN-2025-042,LB,CLIN-2025-042-SITE03-0038,4,CREAT,Creatinine,1.09,mg/dL,1.09,mg/dL,NORMAL,1,Screening,2025-01-25
CLIN-2025-042,LB,CLIN-2025-042-SITE03-0038,5,HGB,Hemoglobin,16.58,g/dL,16.58,g/dL,NORMAL,1,Screening,2025-01-25
CLIN-2025-042,LB,CLIN-2025-042-SITE03-0038,6,WBC,White blood cell count,8.24,K/uL,8.24,K/uL,NORMAL,1,Screening,2025-01-25
CLIN-2025-042,LB,CLIN-2025-042-SITE03-0038,7,PLT,Platelet count,447.46,K/uL,447.46,K/uL,NORMAL,1,Screening,2025-01-25
CLIN-2025-042,LB,CLIN-2025-042-SITE03-0038,8,GLUC,Glucose,61.16,mg/dL,61.16,mg/dL,LOW,1,Screening,2025-01-25
CLIN-2025-042,LB,CLIN-2025-042-SITE03-0038,1,ALT,Alanine aminotransferase,30.27,U/L,30.27,U/L,NORMAL,2,Baseline,2025-03-29
CLIN-2025-042,LB,CLIN-2025-042-SITE03-0038,2,AST,Aspartate aminotransferase,20.19,U/L,20.19,U/L,NORMAL,2,Baseline,2025-03-29
CLIN-2025-042,LB,CLIN-2025-042-SITE03-0038,3,BILI,Bilirubin total,0.62,mg/dL,0.62,mg/dL,NORMAL,2,Baseline,2025-03-29
CLIN-2025-042,LB,CLIN-2025-042-SITE03-0038,4,CREAT,Creatinine,0.90,mg/dL,0.9,mg/dL,NORMAL,2,Baseline,2025-03-29
CLIN-2025-042,LB,CLIN-2025-042-SITE03-0038,5,HGB,Hemoglobin,8.87,g/dL,8.87,g/dL,LOW,2,Baseline,2025-03-29
CLIN-2025-042,LB,CLIN-2025-042-SITE03-0038,6,WBC,White blood cell count,4.05,K/uL,4.05,K/uL,LOW,2,Baseline,2025-03-29
CLIN-2025-042,LB,CLIN-2025-042-SITE03-0038,7,PLT,Platelet count,206.24,K/uL,206.24,K/uL,NORMAL,2,Baseline,2025-03-29
CLIN-2025-042,LB,CLIN-2025-042-SITE03-0038,8,GLUC,Glucose,89.85,mg/dL,89.85,mg/dL,NORMAL,2,Baseline,2025-03-29
CLIN-2025-042,LB,CLIN-2025-042-SITE03-0038,1,ALT,Alanine aminotransferase,26.27,U/L,26.27,U/L,NORMAL,3,Week 4,2025-04-26
CLIN-2025-042,LB,CLIN-2025-042-SITE03-0038,2,AST,Aspartate aminotransferase,31.11,U/L,31.11,U/L,NORMAL,3,Week 4,2025-04-26
CLIN-2025-042,LB,CLIN-2025-042-SITE03-0038,3,BILI,Bilirubin total,0.34,mg/dL,0.34,mg/dL,NORMAL,3,Week 4,2025-04-26
CLIN-2025-042,LB,CLIN-2025-042-SITE03-0038,4,CREAT,Creatinine,1.01,mg/dL,1.01,mg/dL,NORMAL,3,Week 4,2025-04-26
CLIN-2025-042,LB,CLIN-2025-042-SITE03-0038,5,HGB,Hemoglobin,14.48,g/dL,14.48,g/dL,NORMAL,3,Week 4,2025-04-26
CLIN-2025-042,LB,CLIN-2025-042-SITE03-0038,6,WBC,White blood cell count,8.69,K/uL,8.69,K/uL,NORMAL,3,Week 4,2025-04-26
CLIN-2025-042,LB,CLIN-2025-042-SITE03-0038,7,PLT,Platelet count,76.55,K/uL,76.55,K/uL,LOW,3,Week 4,2025-04-26
CLIN-2025-042,LB,CLIN-2025-042-SITE03-0038,8,GLUC,Glucose,25.10,mg/dL,25.1,mg/dL,LOW,3,Week 4,2025-04-26
CLIN-2025-042,LB,CLIN-2025-042-SITE03-0038,1,ALT,Alanine aminotransferase,34.27,U/L,34.27,U/L,NORMAL,4,Week 8,2025-05-24
CLIN-2025-042,LB,CLIN-2025-042-SITE03-0038,2,AST,Aspartate aminotransferase,22.84,U/L,22.84,U/L,NORMAL,4,Week 8,2025-05-24
CLIN-2025-042,LB,CLIN-2025-042-SITE03-0038,3,BILI,Bilirubin total,0.59,mg/dL,0.59,mg/dL,NORMAL,4,Week 8,2025-05-24
CLIN-2025-042,LB,CLIN-2025-042-SITE03-0038,4,CREAT,Creatinine,1.50,mg/dL,1.5,mg/dL,HIGH,4,Week 8,2025-05-24
CLIN-2025-042,LB,CLIN-2025-042-SITE03-0038,5,HGB,Hemoglobin,4.20,g/dL,4.2,g/dL,LOW,4,Week 8,2025-05-24
CLIN-2025-042,LB,CLIN-2025-042-SITE03-0038,6,WBC,White blood cell count,10.20,K/uL,10.2,K/uL,NORMAL,4,Week 8,2025-05-24
CLIN-2025-042,LB,CLIN-2025-042-SITE03-0038,7,PLT,Platelet count,93.24,K/uL,93.24,K/uL,LOW,4,Week 8,2025-05-24
CLIN-2025-042,LB,CLIN-2025-042-SITE03-0038,8,GLUC,Glucose,50.74,mg/dL,50.74,mg/dL,LOW,4,Week 8,2025-05-24
CLIN-2025-042,LB,CLIN-2025-042-SITE04-0039,1,ALT,Alanine aminotransferase,44.46,U/L,44.46,U/L,NORMAL,1,Screening,2025-02-08
CLIN-2025-042,LB,CLIN-2025-042-SITE04-0039,2,AST,Aspartate aminotransferase,6.34,U/L,6.34,U/L,LOW,1,Screening,2025-02-08
CLIN-2025-042,LB,CLIN-2025-042-SITE04-0039,3,BILI,Bilirubin total,0.66,mg/dL,0.66,mg/dL,NORMAL,1,Screening,2025-02-08
CLIN-2025-042,LB,CLIN-2025-042-SITE04-0039,4,CREAT,Creatinine,0.72,mg/dL,0.72,mg/dL,NORMAL,1,Screening,2025-02-08
CLIN-2025-042,LB,CLIN-2025-042-SITE04-0039,5,HGB,Hemoglobin,15.29,g/dL,15.29,g/dL,NORMAL,1,Screening,2025-02-08
CLIN-2025-042,LB,CLIN-2025-042-SITE04-0039,6,WBC,White blood cell count,13.11,K/uL,13.11,K/uL,HIGH,1,Screening,2025-02-08
CLIN-2025-042,LB,CLIN-2025-042-SITE04-0039,7,PLT,Platelet count,286.12,K/uL,286.12,K/uL,NORMAL,1,Screening,2025-02-08
CLIN-2025-042,LB,CLIN-2025-042-SITE04-0039,8,GLUC,Glucose,82.91,mg/dL,82.91,mg/dL,NORMAL,1,Screening,2025-02-08
CLIN-2025-042,LB,CLIN-2025-042-SITE04-0039,1,ALT,Alanine aminotransferase,21.19,U/L,21.19,U/L,NORMAL,2,Baseline,2025-04-12
CLIN-2025-042,LB,CLIN-2025-042-SITE04-0039,2,AST,Aspartate aminotransferase,26.76,U/L,26.76,U/L,NORMAL,2,Baseline,2025-04-12
CLIN-2025-042,LB,CLIN-2025-042-SITE04-0039,3,BILI,Bilirubin total,1.31,mg/dL,1.31,mg/dL,HIGH,2,Baseline,2025-04-12
CLIN-2025-042,LB,CLIN-2025-042-SITE04-0039,4,CREAT,Creatinine,0.46,mg/dL,0.46,mg/dL,LOW,2,Baseline,2025-04-12
CLIN-2025-042,LB,CLIN-2025-042-SITE04-0039,5,HGB,Hemoglobin,16.98,g/dL,16.98,g/dL,NORMAL,2,Baseline,2025-04-12
CLIN-2025-042,LB,CLIN-2025-042-SITE04-0039,6,WBC,White blood cell count,6.75,K/uL,6.75,K/uL,NORMAL,2,Baseline,2025-04-12
CLIN-2025-042,LB,CLIN-2025-042-SITE04-0039,7,PLT,Platelet count,351.99,K/uL,351.99,K/uL,NORMAL,2,Baseline,2025-04-12
CLIN-2025-042,LB,CLIN-2025-042-SITE04-0039,8,GLUC,Glucose,32.76,mg/dL,32.76,mg/dL,LOW,2,Baseline,2025-04-12
CLIN-2025-042,LB,CLIN-2025-042-SITE04-0039,1,ALT,Alanine aminotransferase,3.82,U/L,3.82,U/L,LOW,3,Week 4,2025-05-10
CLIN-2025-042,LB,CLIN-2025-042-SITE04-0039,2,AST,Aspartate aminotransferase,17.30,U/L,17.3,U/L,NORMAL,3,Week 4,2025-05-10
CLIN-2025-042,LB,CLIN-2025-042-SITE04-0039,3,BILI,Bilirubin total,0.52,mg/dL,0.5203696418218653,mg/dL,NORMAL,3,Week 4,2025-05-10
CLIN-2025-042,LB,CLIN-2025-042-SITE04-0039,4,CREAT,Creatinine,0.88,mg/dL,0.88,mg/dL,NORMAL,3,Week 4,2025-05-10
CLIN-2025-042,LB,CLIN-2025-042-SITE04-0039,5,HGB,Hemoglobin,15.81,g/dL,15.81,g/dL,NORMAL,3,Week 4,2025-05-10
CLIN-2025-042,LB,CLIN-2025-042-SITE04-0039,6,WBC,White blood cell count,3.64,K/uL,3.64,K/uL,LOW,3,Week 4,2025-05-10
CLIN-2025-042,LB,CLIN-2025-042-SITE04-0039,7,PLT,Platelet count,266.09,K/uL,266.09,K/uL,NORMAL,3,Week 4,2025-05-10
CLIN-2025-042,LB,CLIN-2025-042-SITE04-0039,8,GLUC,Glucose,80.95,mg/dL,80.95,mg/dL,NORMAL,3,Week 4,2025-05-10
CLIN-2025-042,LB,CLIN-2025-042-SITE04-0039,1,ALT,Alanine aminotransferase,79.88,U/L,79.88,U/L,HIGH,4,Week 8,2025-06-07
CLIN-2025-042,LB,CLIN-2025-042-SITE04-0039,2,AST,Aspartate aminotransferase,13.76,U/L,13.76,U/L,NORMAL,4,Week 8,2025-06-07
CLIN-2025-042,LB,CLIN-2025-042-SITE04-0039,3,BILI,Bilirubin total,0.39,mg/dL,0.39,mg/dL,NORMAL,4,Week 8,2025-06-07
CLIN-2025-042,LB,CLIN-2025-042-SITE04-0039,4,CREAT,Creatinine,1.41,mg/dL,1.41,mg/dL,HIGH,4,Week 8,2025-06-07
CLIN-2025-042,LB,CLIN-2025-042-SITE04-0039,5,HGB,Hemoglobin,15.60,g/dL,15.6,g/dL,NORMAL,4,Week 8,2025-06-07
CLIN-2025-042,LB,CLIN-2025-042-SITE04-0039,6,WBC,White blood cell count,7.96,K/uL,7.96,K/uL,NORMAL,4,Week 8,2025-06-07
CLIN-2025-042,LB,CLIN-2025-042-SITE04-0039,7,PLT,Platelet count,248.75,K/uL,248.75,K/uL,NORMAL,4,Week 8,2025-06-07
CLIN-2025-042,LB,CLIN-2025-042-SITE04-0039,8,GLUC,Glucose,81.68,mg/dL,81.68,mg/dL,NORMAL,4,Week 8,2025-06-07
CLIN-2025-042,LB,CLIN-2025-042-SITE05-0040,1,ALT,Alanine aminotransferase,26.91,U/L,26.91,U/L,NORMAL,1,Screening,2025-02-19
CLIN-2025-042,LB,CLIN-2025-042-SITE05-0040,2,AST,Aspartate aminotransferase,28.71,U/L,28.71,U/L,NORMAL,1,Screening,2025-02-19
CLIN-2025-042,LB,CLIN-2025-042-SITE05-0040,3,BILI,Bilirubin total,0.33,mg/dL,0.33,mg/dL,NORMAL,1,Screening,2025-02-19
CLIN-2025-042,LB,CLIN-2025-042-SITE05-0040,4,CREAT,Creatinine,1.15,mg/dL,1.15,mg/dL,NORMAL,1,Screening,2025-02-19
CLIN-2025-042,LB,CLIN-2025-042-SITE05-0040,5,HGB,Hemoglobin,9.09,g/dL,9.09,g/dL,LOW,1,Screening,2025-02-19
CLIN-2025-042,LB,CLIN-2025-042-SITE05-0040,6,WBC,White blood cell count,8.53,K/uL,8.53,K/uL,NORMAL,1,Screening,2025-02-19
CLIN-2025-042,LB,CLIN-2025-042-SITE05-0040,7,PLT,Platelet count,296.23,K/uL,296.23,K/uL,NORMAL,1,Screening,2025-02-19
CLIN-2025-042,LB,CLIN-2025-042-SITE05-0040,8,GLUC,Glucose,83.68,mg/dL,83.68,mg/dL,NORMAL,1,Screening,2025-02-19
CLIN-2025-042,LB,CLIN-2025-042-SITE05-0040,1,ALT,Alanine aminotransferase,11.97,U/L,11.97,U/L,NORMAL,2,Baseline,2025-04-23
CLIN-2025-042,LB,CLIN-2025-042-SITE05-0040,2,AST,Aspartate aminotransferase,32.88,U/L,32.88,U/L,NORMAL,2,Baseline,2025-04-23
CLIN-2025-042,LB,CLIN-2025-042-SITE05-0040,3,BILI,Bilirubin total,0.10,mg/dL,0.1,mg/dL,LOW,2,Baseline,2025-04-23
CLIN-2025-042,LB,CLIN-2025-042-SITE05-0040,4,CREAT,Creatinine,0.95,mg/dL,0.95,mg/dL,NORMAL,2,Baseline,2025-04-23
CLIN-2025-042,LB,CLIN-2025-042-SITE05-0040,5,HGB,Hemoglobin,13.16,g/dL,13.16,g/dL,NORMAL,2,Baseline,2025-04-23
CLIN-2025-042,LB,CLIN-2025-042-SITE05-0040,6,WBC,White blood cell count,7.18,K/uL,7.18,K/uL,NORMAL,2,Baseline,2025-04-23
CLIN-2025-042,LB,CLIN-2025-042-SITE05-0040,7,PLT,Platelet count,174.87,K/uL,174.87,K/uL,NORMAL,2,Baseline,2025-04-23
CLIN-2025-042,LB,CLIN-2025-042-SITE05-0040,8,GLUC,Glucose,87.83,mg/dL,87.83,mg/dL,NORMAL,2,Baseline,2025-04-23
CLIN-2025-042,LB,CLIN-2025-042-SITE05-0040,1,ALT,Alanine aminotransferase,34.62,U/L,34.62,U/L,NORMAL,3,Week 4,2025-05-21
CLIN-2025-042,LB,CLIN-2025-042-SITE05-0040,2,AST,Aspartate aminotransferase,29.80,U/L,29.8,U/L,NORMAL,3,Week 4,2025-05-21
CLIN-2025-042,LB,CLIN-2025-042-SITE05-0040,3,BILI,Bilirubin total,0.80,mg/dL,0.8,mg/dL,NORMAL,3,Week 4,2025-05-21
CLIN-2025-042,LB,CLIN-2025-042-SITE05-0040,4,CREAT,Creatinine,1.08,mg/dL,1.08,mg/dL,NORMAL,3,Week 4,2025-05-21
CLIN-2025-042,LB,CLIN-2025-042-SITE05-0040,5,HGB,Hemoglobin,4.44,g/dL,4.44,g/dL,LOW,3,Week 4,2025-05-21
CLIN-2025-042,LB,CLIN-2025-042-SITE05-0040,6,WBC,White blood cell count,9.19,K/uL,9.19,K/uL,NORMAL,3,Week 4,2025-05-21
CLIN-2025-042,LB,CLIN-2025-042-SITE05-0040,7,PLT,Platelet count,298.03,K/uL,298.03,K/uL,NORMAL,3,Week 4,2025-05-21
CLIN-2025-042,LB,CLIN-2025-042-SITE05-0040,8,GLUC,Glucose,82.00,mg/dL,82.0,mg/dL,NORMAL,3,Week 4,2025-05-21
CLIN-2025-042,LB,CLIN-2025-042-SITE05-0040,1,ALT,Alanine aminotransferase,43.62,U/L,43.62,U/L,NORMAL,4,Week 8,2025-06-18
CLIN-2025-042,LB,CLIN-2025-042-SITE05-0040,2,AST,Aspartate aminotransferase,19.11,U/L,19.11,U/L,NORMAL,4,Week 8,2025-06-18
CLIN-2025-042,LB,CLIN-2025-042-SITE05-0040,3,BILI,Bilirubin total,0.49,mg/dL,0.49,mg/dL,NORMAL,4,Week 8,2025-06-18
CLIN-2025-042,LB,CLIN-2025-042-SITE05-0040,4,CREAT,Creatinine,0.35,mg/dL,0.35,mg/dL,LOW,4,Week 8,2025-06-18
CLIN-2025-042,LB,CLIN-2025-042-SITE05-0040,5,HGB,Hemoglobin,15.61,g/dL,15.61,g/dL,NORMAL,4,Week 8,2025-06-18
CLIN-2025-042,LB,CLIN-2025-042-SITE05-0040,6,WBC,White blood cell count,12.69,K/uL,12.69,K/uL,HIGH,4,Week 8,2025-06-18
CLIN-2025-042,LB,CLIN-2025-042-SITE05-0040,7,PLT,Platelet count,194.25,K/uL,194.25,K/uL,NORMAL,4,Week 8,2025-06-18
CLIN-2025-042,LB,CLIN-2025-042-SITE05-0040,8,GLUC,Glucose,75.06,mg/dL,75.06,mg/dL,NORMAL,4,Week 8,2025-06-18
CLIN-2025-042,LB,CLIN-2025-042-SITE01-0041,1,ALT,Alanine aminotransferase,6.03,U/L,6.03,U/L,LOW,1,Screening,2025-06-08
CLIN-2025-042,LB,CLIN-2025-042-SITE01-0041,2,AST,Aspartate aminotransferase,35.22,U/L,35.22,U/L,NORMAL,1,Screening,2025-06-08
CLIN-2025-042,LB,CLIN-2025-042-SITE01-0041,3,BILI,Bilirubin total,0.60,mg/dL,0.6,mg/dL,NORMAL,1,Screening,2025-06-08
CLIN-2025-042,LB,CLIN-2025-042-SITE01-0041,4,CREAT,Creatinine,1.81,mg/dL,1.81,mg/dL,HIGH,1,Screening,2025-06-08
CLIN-2025-042,LB,CLIN-2025-042-SITE01-0041,5,HGB,Hemoglobin,11.23,g/dL,11.23,g/dL,LOW,1,Screening,2025-06-08
CLIN-2025-042,LB,CLIN-2025-042-SITE01-0041,6,WBC,White blood cell count,12.64,K/uL,12.64,K/uL,HIGH,1,Screening,2025-06-08
CLIN-2025-042,LB,CLIN-2025-042-SITE01-0041,7,PLT,Platelet count,253.76,K/uL,253.76,K/uL,NORMAL,1,Screening,2025-06-08
CLIN-2025-042,LB,CLIN-2025-042-SITE01-0041,8,GLUC,Glucose,86.48,mg/dL,86.48,mg/dL,NORMAL,1,Screening,2025-06-08
CLIN-2025-042,LB,CLIN-2025-042-SITE01-0041,1,ALT,Alanine aminotransferase,3.99,U/L,3.99,U/L,LOW,2,Baseline,2025-08-10
CLIN-2025-042,LB,CLIN-2025-042-SITE01-0041,2,AST,Aspartate aminotransferase,11.22,U/L,11.22,U/L,NORMAL,2,Baseline,2025-08-10
CLIN-2025-042,LB,CLIN-2025-042-SITE01-0041,3,BILI,Bilirubin total,0.59,mg/dL,0.59,mg/dL,NORMAL,2,Baseline,2025-08-10
CLIN-2025-042,LB,CLIN-2025-042-SITE01-0041,4,CREAT,Creatinine,1.90,mg/dL,1.9,mg/dL,HIGH,2,Baseline,2025-08-10
CLIN-2025-042,LB,CLIN-2025-042-SITE01-0041,5,HGB,Hemoglobin,14.38,g/dL,14.38,g/dL,NORMAL,2,Baseline,2025-08-10
CLIN-2025-042,LB,CLIN-2025-042-SITE01-0041,6,WBC,White blood cell count,6.71,K/uL,6.71,K/uL,NORMAL,2,Baseline,2025-08-10
CLIN-2025-042,LB,CLIN-2025-042-SITE01-0041,7,PLT,Platelet count,171.45,K/uL,171.45,K/uL,NORMAL,2,Baseline,2025-08-10
CLIN-2025-042,LB,CLIN-2025-042-SITE01-0041,8,GLUC,Glucose,81.01,mg/dL,81.01,mg/dL,NORMAL,2,Baseline,2025-08-10
CLIN-2025-042,LB,CLIN-2025-042-SITE01-0041,1,ALT,Alanine aminotransferase,28.17,U/L,28.17,U/L,NORMAL,3,Week 4,2025-09-07
CLIN-2025-042,LB,CLIN-2025-042-SITE01-0041,2,AST,Aspartate aminotransferase,26.87,U/L,26.87,U/L,NORMAL,3,Week 4,2025-09-07
CLIN-2025-042,LB,CLIN-2025-042-SITE01-0041,3,BILI,Bilirubin total,0.11,mg/dL,0.11,mg/dL,NORMAL,3,Week 4,2025-09-07
CLIN-2025-042,LB,CLIN-2025-042-SITE01-0041,4,CREAT,Creatinine,0.87,mg/dL,0.87,mg/dL,NORMAL,3,Week 4,2025-09-07
CLIN-2025-042,LB,CLIN-2025-042-SITE01-0041,5,HGB,Hemoglobin,15.56,g/dL,15.56,g/dL,NORMAL,3,Week 4,2025-09-07
CLIN-2025-042,LB,CLIN-2025-042-SITE01-0041,6,WBC,White blood cell count,7.88,K/uL,7.88,K/uL,NORMAL,3,Week 4,2025-09-07
CLIN-2025-042,LB,CLIN-2025-042-SITE01-0041,7,PLT,Platelet count,326.38,K/uL,326.38,K/uL,NORMAL,3,Week 4,2025-09-07
CLIN-2025-042,LB,CLIN-2025-042-SITE01-0041,8,GLUC,Glucose,46.86,mg/dL,46.86,mg/dL,LOW,3,Week 4,2025-09-07
CLIN-2025-042,LB,CLIN-2025-042-SITE01-0041,1,ALT,Alanine aminotransferase,16.25,U/L,16.25,U/L,NORMAL,4,Week 8,2025-10-05
CLIN-2025-042,LB,CLIN-2025-042-SITE01-0041,2,AST,Aspartate aminotransferase,23.81,U/L,23.81,U/L,NORMAL,4,Week 8,2025-10-05
CLIN-2025-042,LB,CLIN-2025-042-SITE01-0041,3,BILI,Bilirubin total,0.10,mg/dL,0.1,mg/dL,LOW,4,Week 8,2025-10-05
CLIN-2025-042,LB,CLIN-2025-042-SITE01-0041,4,CREAT,Creatinine,1.08,mg/dL,1.08,mg/dL,NORMAL,4,Week 8,2025-10-05
CLIN-2025-042,LB,CLIN-2025-042-SITE01-0041,5,HGB,Hemoglobin,16.05,g/dL,16.05,g/dL,NORMAL,4,Week 8,2025-10-05
CLIN-2025-042,LB,CLIN-2025-042-SITE01-0041,6,WBC,White blood cell count,6.30,K/uL,6.3,K/uL,NORMAL,4,Week 8,2025-10-05
CLIN-2025-042,LB,CLIN-2025-042-SITE01-0041,7,PLT,Platelet count,301.42,K/uL,301.42,K/uL,NORMAL,4,Week 8,2025-10-05
CLIN-2025-042,LB,CLIN-2025-042-SITE01-0041,8,GLUC,Glucose,83.16,mg/dL,83.16,mg/dL,NORMAL,4,Week 8,2025-10-05
CLIN-2025-042,LB,CLIN-2025-042-SITE02-0042,1,ALT,Alanine aminotransferase,30.91,U/L,30.91,U/L,NORMAL,1,Screening,2025-02-08
CLIN-2025-042,LB,CLIN-2025-042-SITE02-0042,2,AST,Aspartate aminotransferase,4.13,U/L,4.13,U/L,LOW,1,Screening,2025-02-08
CLIN-2025-042,LB,CLIN-2025-042-SITE02-0042,3,BILI,Bilirubin total,0.62,mg/dL,0.62,mg/dL,NORMAL,1,Screening,2025-02-08
CLIN-2025-042,LB,CLIN-2025-042-SITE02-0042,4,CREAT,Creatinine,0.81,mg/dL,0.81,mg/dL,NORMAL,1,Screening,2025-02-08
CLIN-2025-042,LB,CLIN-2025-042-SITE02-0042,5,HGB,Hemoglobin,15.76,g/dL,15.76,g/dL,NORMAL,1,Screening,2025-02-08
CLIN-2025-042,LB,CLIN-2025-042-SITE02-0042,6,WBC,White blood cell count,8.38,K/uL,8.38,K/uL,NORMAL,1,Screening,2025-02-08
CLIN-2025-042,LB,CLIN-2025-042-SITE02-0042,7,PLT,Platelet count,59.93,K/uL,59.93,K/uL,LOW,1,Screening,2025-02-08
CLIN-2025-042,LB,CLIN-2025-042-SITE02-0042,8,GLUC,Glucose,91.78,mg/dL,91.78,mg/dL,NORMAL,1,Screening,2025-02-08
CLIN-2025-042,LB,CLIN-2025-042-SITE02-0042,1,ALT,Alanine aminotransferase,39.72,U/L,39.72,U/L,NORMAL,2,Baseline,2025-04-12
CLIN-2025-042,LB,CLIN-2025-042-SITE02-0042,2,AST,Aspartate aminotransferase,17.20,U/L,17.2,U/L,NORMAL,2,Baseline,2025-04-12
CLIN-2025-042,LB,CLIN-2025-042-SITE02-0042,3,BILI,Bilirubin total,0.52,mg/dL,0.52,mg/dL,NORMAL,2,Baseline,2025-04-12
CLIN-2025-042,LB,CLIN-2025-042-SITE02-0042,4,CREAT,Creatinine,2.34,mg/dL,2.34,mg/dL,HIGH,2,Baseline,2025-04-12
CLIN-2025-042,LB,CLIN-2025-042-SITE02-0042,5,HGB,Hemoglobin,17.65,g/dL,17.65,g/dL,NORMAL,2,Baseline,2025-04-12
CLIN-2025-042,LB,CLIN-2025-042-SITE02-0042,6,WBC,White blood cell count,6.79,K/uL,6.79,K/uL,NORMAL,2,Baseline,2025-04-12
CLIN-2025-042,LB,CLIN-2025-042-SITE02-0042,7,PLT,Platelet count,306.10,K/uL,306.1,K/uL,NORMAL,2,Baseline,2025-04-12
CLIN-2025-042,LB,CLIN-2025-042-SITE02-0042,8,GLUC,Glucose,92.68,mg/dL,92.68,mg/dL,NORMAL,2,Baseline,2025-04-12
CLIN-2025-042,LB,CLIN-2025-042-SITE02-0042,1,ALT,Alanine aminotransferase,5.77,U/L,5.77,U/L,LOW,3,Week 4,2025-05-10
CLIN-2025-042,LB,CLIN-2025-042-SITE02-0042,2,AST,Aspartate aminotransferase,5.85,U/L,5.85,U/L,LOW,3,Week 4,2025-05-10
CLIN-2025-042,LB,CLIN-2025-042-SITE02-0042,3,BILI,Bilirubin total,0.77,mg/dL,0.77,mg/dL,NORMAL,3,Week 4,2025-05-10
CLIN-2025-042,LB,CLIN-2025-042-SITE02-0042,4,CREAT,Creatinine,1.02,mg/dL,1.02,mg/dL,NORMAL,3,Week 4,2025-05-10
CLIN-2025-042,LB,CLIN-2025-042-SITE02-0042,5,HGB,Hemoglobin,17.73,g/dL,17.73,g/dL,NORMAL,3,Week 4,2025-05-10
CLIN-2025-042,LB,CLIN-2025-042-SITE02-0042,6,WBC,White blood cell count,11.60,K/uL,11.6,K/uL,HIGH,3,Week 4,2025-05-10
CLIN-2025-042,LB,CLIN-2025-042-SITE02-0042,7,PLT,Platelet count,299.09,K/uL,299.09,K/uL,NORMAL,3,Week 4,2025-05-10
CLIN-2025-042,LB,CLIN-2025-042-SITE02-0042,8,GLUC,Glucose,84.99,mg/dL,84.99,mg/dL,NORMAL,3,Week 4,2025-05-10
CLIN-2025-042,LB,CLIN-2025-042-SITE02-0042,1,ALT,Alanine aminotransferase,6.16,U/L,6.16,U/L,LOW,4,Week 8,2025-06-07
CLIN-2025-042,LB,CLIN-2025-042-SITE02-0042,2,AST,Aspartate aminotransferase,8.20,U/L,8.36841688300884,U/L,NORMAL,4,Week 8,2025-06-07
CLIN-2025-042,LB,CLIN-2025-042-SITE02-0042,3,BILI,Bilirubin total,0.10,mg/dL,0.1,mg/dL,LOW,4,Week 8,2025-06-07
CLIN-2025-042,LB,CLIN-2025-042-SITE02-0042,4,CREAT,Creatinine,0.84,mg/dL,0.84,mg/dL,NORMAL,4,Week 8,2025-06-07
CLIN-2025-042,LB,CLIN-2025-042-SITE02-0042,5,HGB,Hemoglobin,16.16,g/dL,16.16,g/dL,NORMAL,4,Week 8,2025-06-07
CLIN-2025-042,LB,CLIN-2025-042-SITE02-0042,6,WBC,White blood cell count,1.90,K/uL,1.9,K/uL,LOW,4,Week 8,2025-06-07
CLIN-2025-042,LB,CLIN-2025-042-SITE02-0042,7,PLT,Platelet count,135.61,K/uL,135.61,K/uL,NORMAL,4,Week 8,2025-06-07
CLIN-2025-042,LB,CLIN-2025-042-SITE02-0042,8,GLUC,Glucose,97.64,mg/dL,97.64,mg/dL,NORMAL,4,Week 8,2025-06-07
CLIN-2025-042,LB,CLIN-2025-042-SITE03-0043,1,ALT,Alanine aminotransferase,63.88,U/L,63.88,U/L,HIGH,1,Screening,2025-04-03
CLIN-2025-042,LB,CLIN-2025-042-SITE03-0043,2,AST,Aspartate aminotransferase,18.88,U/L,18.88,U/L,NORMAL,1,Screening,2025-04-03
CLIN-2025-042,LB,CLIN-2025-042-SITE03-0043,3,BILI,Bilirubin total,0.25,mg/dL,0.25,mg/dL,NORMAL,1,Screening,2025-04-03
CLIN-2025-042,LB,CLIN-2025-042-SITE03-0043,4,CREAT,Creatinine,1.09,mg/dL,1.09,mg/dL,NORMAL,1,Screening,2025-04-03
CLIN-2025-042,LB,CLIN-2025-042-SITE03-0043,5,HGB,Hemoglobin,14.25,g/dL,14.25,g/dL,NORMAL,1,Screening,2025-04-03
CLIN-2025-042,LB,CLIN-2025-042-SITE03-0043,6,WBC,White blood cell count,6.52,K/uL,6.52,K/uL,NORMAL,1,Screening,2025-04-03
CLIN-2025-042,LB,CLIN-2025-042-SITE03-0043,7,PLT,Platelet count,342.29,K/uL,342.29,K/uL,NORMAL,1,Screening,2025-04-03
CLIN-2025-042,LB,CLIN-2025-042-SITE03-0043,8,GLUC,Glucose,79.76,mg/dL,79.76,mg/dL,NORMAL,1,Screening,2025-04-03
CLIN-2025-042,LB,CLIN-2025-042-SITE03-0043,1,ALT,Alanine aminotransferase,4.17,U/L,4.17,U/L,LOW,2,Baseline,2025-06-05
CLIN-2025-042,LB,CLIN-2025-042-SITE03-0043,2,AST,Aspartate aminotransferase,24.50,U/L,24.5,U/L,NORMAL,2,Baseline,2025-06-05
CLIN-2025-042,LB,CLIN-2025-042-SITE03-0043,3,BILI,Bilirubin total,0.84,mg/dL,0.84,mg/dL,NORMAL,2,Baseline,2025-06-05
CLIN-2025-042,LB,CLIN-2025-042-SITE03-0043,4,CREAT,Creatinine,1.19,mg/dL,1.19,mg/dL,NORMAL,2,Baseline,2025-06-05
CLIN-2025-042,LB,CLIN-2025-042-SITE03-0043,5,HGB,Hemoglobin,14.49,g/dL,14.49,g/dL,NORMAL,2,Baseline,2025-06-05
CLIN-2025-042,LB,CLIN-2025-042-SITE03-0043,6,WBC,White blood cell count,9.53,K/uL,9.53,K/uL,NORMAL,2,Baseline,2025-06-05
CLIN-2025-042,LB,CLIN-2025-042-SITE03-0043,7,PLT,Platelet count,380.76,K/uL,380.76,K/uL,NORMAL,2,Baseline,2025-06-05
CLIN-2025-042,LB,CLIN-2025-042-SITE03-0043,8,GLUC,Glucose,87.68,mg/dL,87.68,mg/dL,NORMAL,2,Baseline,2025-06-05
CLIN-2025-042,LB,CLIN-2025-042-SITE03-0043,1,ALT,Alanine aminotransferase,33.14,U/L,33.14,U/L,NORMAL,3,Week 4,2025-07-03
CLIN-2025-042,LB,CLIN-2025-042-SITE03-0043,2,AST,Aspartate aminotransferase,13.26,U/L,13.26,U/L,NORMAL,3,Week 4,2025-07-03
CLIN-2025-042,LB,CLIN-2025-042-SITE03-0043,3,BILI,Bilirubin total,0.61,mg/dL,0.61,mg/dL,NORMAL,3,Week 4,2025-07-03
CLIN-2025-042,LB,CLIN-2025-042-SITE03-0043,4,CREAT,Creatinine,1.03,mg/dL,1.03,mg/dL,NORMAL,3,Week 4,2025-07-03
CLIN-2025-042,LB,CLIN-2025-042-SITE03-0043,5,HGB,Hemoglobin,14.51,g/dL,14.51,g/dL,NORMAL,3,Week 4,2025-07-03
CLIN-2025-042,LB,CLIN-2025-042-SITE03-0043,6,WBC,White blood cell count,4.65,K/uL,4.65,K/uL,NORMAL,3,Week 4,2025-07-03
CLIN-2025-042,LB,CLIN-2025-042-SITE03-0043,7,PLT,Platelet count,117.32,K/uL,117.32,K/uL,NORMAL,3,Week 4,2025-07-03
CLIN-2025-042,LB,CLIN-2025-042-SITE03-0043,8,GLUC,Glucose,72.71,mg/dL,72.71,mg/dL,NORMAL,3,Week 4,2025-07-03
CLIN-2025-042,LB,CLIN-2025-042-SITE03-0043,1,ALT,Alanine aminotransferase,130.55,U/L,130.55,U/L,HIGH,4,Week 8,2025-07-31
CLIN-2025-042,LB,CLIN-2025-042-SITE03-0043,2,AST,Aspartate aminotransferase,27.47,U/L,27.47,U/L,NORMAL,4,Week 8,2025-07-31
CLIN-2025-042,LB,CLIN-2025-042-SITE03-0043,3,BILI,Bilirubin total,0.48,mg/dL,0.48,mg/dL,NORMAL,4,Week 8,2025-07-31
CLIN-2025-042,LB,CLIN-2025-042-SITE03-0043,4,CREAT,Creatinine,0.93,mg/dL,0.93,mg/dL,NORMAL,4,Week 8,2025-07-31
CLIN-2025-042,LB,CLIN-2025-042-SITE03-0043,5,HGB,Hemoglobin,15.59,g/dL,15.59,g/dL,NORMAL,4,Week 8,2025-07-31
CLIN-2025-042,LB,CLIN-2025-042-SITE03-0043,6,WBC,White blood cell count,8.22,K/uL,8.22,K/uL,NORMAL,4,Week 8,2025-07-31
CLIN-2025-042,LB,CLIN-2025-042-SITE03-0043,7,PLT,Platelet count,300.42,K/uL,300.42,K/uL,NORMAL,4,Week 8,2025-07-31
CLIN-2025-042,LB,CLIN-2025-042-SITE03-0043,8,GLUC,Glucose,75.93,mg/dL,75.93,mg/dL,NORMAL,4,Week 8,2025-07-31
CLIN-2025-042,LB,CLIN-2025-042-SITE04-0044,1,ALT,Alanine aminotransferase,41.00,U/L,41.0,U/L,NORMAL,1,Screening,2025-04-25
CLIN-2025-042,LB,CLIN-2025-042-SITE04-0044,2,AST,Aspartate aminotransferase,16.46,U/L,16.46,U/L,NORMAL,1,Screening,2025-04-25
CLIN-2025-042,LB,CLIN-2025-042-SITE04-0044,3,BILI,Bilirubin total,0.79,mg/dL,0.79,mg/dL,NORMAL,1,Screening,2025-04-25
CLIN-2025-042,LB,CLIN-2025-042-SITE04-0044,4,CREAT,Creatinine,1.16,mg/dL,1.16,mg/dL,NORMAL,1,Screening,2025-04-25
CLIN-2025-042,LB,CLIN-2025-042-SITE04-0044,5,HGB,Hemoglobin,5.79,g/dL,5.79,g/dL,LOW,1,Screening,2025-04-25
CLIN-2025-042,LB,CLIN-2025-042-SITE04-0044,6,WBC,White blood cell count,6.37,K/uL,6.37,K/uL,NORMAL,1,Screening,2025-04-25
CLIN-2025-042,LB,CLIN-2025-042-SITE04-0044,7,PLT,Platelet count,237.42,K/uL,237.42,K/uL,NORMAL,1,Screening,2025-04-25
CLIN-2025-042,LB,CLIN-2025-042-SITE04-0044,8,GLUC,Glucose,146.24,mg/dL,146.24,mg/dL,HIGH,1,Screening,2025-04-25
CLIN-2025-042,LB,CLIN-2025-042-SITE04-0044,1,ALT,Alanine aminotransferase,4.37,U/L,4.37,U/L,LOW,2,Baseline,2025-06-27
CLIN-2025-042,LB,CLIN-2025-042-SITE04-0044,2,AST,Aspartate aminotransferase,37.39,U/L,37.39,U/L,NORMAL,2,Baseline,2025-06-27
CLIN-2025-042,LB,CLIN-2025-042-SITE04-0044,3,BILI,Bilirubin total,1.32,mg/dL,1.32,mg/dL,HIGH,2,Baseline,2025-06-27
CLIN-2025-042,LB,CLIN-2025-042-SITE04-0044,4,CREAT,Creatinine,1.00,mg/dL,1.0,mg/dL,NORMAL,2,Baseline,2025-06-27
CLIN-2025-042,LB,CLIN-2025-042-SITE04-0044,5,HGB,Hemoglobin,19.97,g/dL,19.97,g/dL,HIGH,2,Baseline,2025-06-27
CLIN-2025-042,LB,CLIN-2025-042-SITE04-0044,6,WBC,White blood cell count,8.22,K/uL,8.22,K/uL,NORMAL,2,Baseline,2025-06-27
CLIN-2025-042,LB,CLIN-2025-042-SITE04-0044,7,PLT,Platelet count,272.69,K/uL,272.69,K/uL,NORMAL,2,Baseline,2025-06-27
CLIN-2025-042,LB,CLIN-2025-042-SITE04-0044,8,GLUC,Glucose,90.12,mg/dL,90.12,mg/dL,NORMAL,2,Baseline,2025-06-27
CLIN-2025-042,LB,CLIN-2025-042-SITE04-0044,1,ALT,Alanine aminotransferase,25.85,U/L,25.85,U/L,NORMAL,3,Week 4,2025-07-25
CLIN-2025-042,LB,CLIN-2025-042-SITE04-0044,2,AST,Aspartate aminotransferase,24.85,U/L,24.85,U/L,NORMAL,3,Week 4,2025-07-25
CLIN-2025-042,LB,CLIN-2025-042-SITE04-0044,3,BILI,Bilirubin total,1.12,mg/dL,1.12,mg/dL,NORMAL,3,Week 4,2025-07-25
CLIN-2025-042,LB,CLIN-2025-042-SITE04-0044,4,CREAT,Creatinine,1.16,mg/dL,1.16,mg/dL,NORMAL,3,Week 4,2025-07-25
CLIN-2025-042,LB,CLIN-2025-042-SITE04-0044,5,HGB,Hemoglobin,15.97,g/dL,15.97,g/dL,NORMAL,3,Week 4,2025-07-25
CLIN-2025-042,LB,CLIN-2025-042-SITE04-0044,6,WBC,White blood cell count,8.37,K/uL,8.37,K/uL,NORMAL,3,Week 4,2025-07-25
CLIN-2025-042,LB,CLIN-2025-042-SITE04-0044,7,PLT,Platelet count,360.43,K/uL,360.43,K/uL,NORMAL,3,Week 4,2025-07-25
CLIN-2025-042,LB,CLIN-2025-042-SITE04-0044,8,GLUC,Glucose,117.66,mg/dL,117.66,mg/dL,HIGH,3,Week 4,2025-07-25
CLIN-2025-042,LB,CLIN-2025-042-SITE04-0044,1,ALT,Alanine aminotransferase,2.16,U/L,2.16,U/L,LOW,4,Week 8,2025-08-22
CLIN-2025-042,LB,CLIN-2025-042-SITE04-0044,2,AST,Aspartate aminotransferase,7.90,U/L,7.9,U/L,LOW,4,Week 8,2025-08-22
CLIN-2025-042,LB,CLIN-2025-042-SITE04-0044,3,BILI,Bilirubin total,0.93,mg/dL,0.93,mg/dL,NORMAL,4,Week 8,2025-08-22
CLIN-2025-042,LB,CLIN-2025-042-SITE04-0044,4,CREAT,Creatinine,1.04,mg/dL,1.04,mg/dL,NORMAL,4,Week 8,2025-08-22
CLIN-2025-042,LB,CLIN-2025-042-SITE04-0044,5,HGB,Hemoglobin,15.54,g/dL,15.54,g/dL,NORMAL,4,Week 8,2025-08-22
CLIN-2025-042,LB,CLIN-2025-042-SITE04-0044,6,WBC,White blood cell count,9.25,K/uL,9.25,K/uL,NORMAL,4,Week 8,2025-08-22
CLIN-2025-042,LB,CLIN-2025-042-SITE04-0044,7,PLT,Platelet count,286.69,K/uL,286.69,K/uL,NORMAL,4,Week 8,2025-08-22
CLIN-2025-042,LB,CLIN-2025-042-SITE04-0044,8,GLUC,Glucose,82.98,mg/dL,82.98,mg/dL,NORMAL,4,Week 8,2025-08-22
CLIN-2025-042,LB,CLIN-2025-042-SITE05-0045,1,ALT,Alanine aminotransferase,5.02,U/L,5.02,U/L,LOW,1,Screening,2025-04-16
CLIN-2025-042,LB,CLIN-2025-042-SITE05-0045,2,AST,Aspartate aminotransferase,4.68,U/L,4.68,U/L,LOW,1,Screening,2025-04-16
CLIN-2025-042,LB,CLIN-2025-042-SITE05-0045,3,BILI,Bilirubin total,0.26,mg/dL,0.26,mg/dL,NORMAL,1,Screening,2025-04-16
CLIN-2025-042,LB,CLIN-2025-042-SITE05-0045,4,CREAT,Creatinine,0.89,mg/dL,0.89,mg/dL,NORMAL,1,Screening,2025-04-16
CLIN-2025-042,LB,CLIN-2025-042-SITE05-0045,5,HGB,Hemoglobin,14.70,g/dL,14.7,g/dL,NORMAL,1,Screening,2025-04-16
CLIN-2025-042,LB,CLIN-2025-042-SITE05-0045,6,WBC,White blood cell count,7.44,K/uL,7.44,K/uL,NORMAL,1,Screening,2025-04-16
CLIN-2025-042,LB,CLIN-2025-042-SITE05-0045,7,PLT,Platelet count,220.64,K/uL,220.64,K/uL,NORMAL,1,Screening,2025-04-16
CLIN-2025-042,LB,CLIN-2025-042-SITE05-0045,8,GLUC,Glucose,48.37,mg/dL,48.37,mg/dL,LOW,1,Screening,2025-04-16
CLIN-2025-042,LB,CLIN-2025-042-SITE05-0045,1,ALT,Alanine aminotransferase,64.19,U/L,64.19,U/L,HIGH,2,Baseline,2025-06-18
CLIN-2025-042,LB,CLIN-2025-042-SITE05-0045,2,AST,Aspartate aminotransferase,7.08,U/L,7.08,U/L,LOW,2,Baseline,2025-06-18
CLIN-2025-042,LB,CLIN-2025-042-SITE05-0045,3,BILI,Bilirubin total,0.85,mg/dL,0.85,mg/dL,NORMAL,2,Baseline,2025-06-18
CLIN-2025-042,LB,CLIN-2025-042-SITE05-0045,4,CREAT,Creatinine,0.94,mg/dL,0.94,mg/dL,NORMAL,2,Baseline,2025-06-18
CLIN-2025-042,LB,CLIN-2025-042-SITE05-0045,5,HGB,Hemoglobin,16.30,g/dL,16.3,g/dL,NORMAL,2,Baseline,2025-06-18
CLIN-2025-042,LB,CLIN-2025-042-SITE05-0045,6,WBC,White blood cell count,6.87,K/uL,6.87,K/uL,NORMAL,2,Baseline,2025-06-18
CLIN-2025-042,LB,CLIN-2025-042-SITE05-0045,7,PLT,Platelet count,214.61,K/uL,214.61,K/uL,NORMAL,2,Baseline,2025-06-18
CLIN-2025-042,LB,CLIN-2025-042-SITE05-0045,8,GLUC,Glucose,77.68,mg/dL,77.68,mg/dL,NORMAL,2,Baseline,2025-06-18
CLIN-2025-042,LB,CLIN-2025-042-SITE05-0045,1,ALT,Alanine aminotransferase,46.68,U/L,46.68,U/L,NORMAL,3,Week 4,2025-07-16
CLIN-2025-042,LB,CLIN-2025-042-SITE05-0045,2,AST,Aspartate aminotransferase,24.94,U/L,24.94,U/L,NORMAL,3,Week 4,2025-07-16
CLIN-2025-042,LB,CLIN-2025-042-SITE05-0045,3,BILI,Bilirubin total,0.65,mg/dL,0.65,mg/dL,NORMAL,3,Week 4,2025-07-16
CLIN-2025-042,LB,CLIN-2025-042-SITE05-0045,4,CREAT,Creatinine,1.16,mg/dL,1.16,mg/dL,NORMAL,3,Week 4,2025-07-16
CLIN-2025-042,LB,CLIN-2025-042-SITE05-0045,5,HGB,Hemoglobin,17.01,g/dL,17.01,g/dL,NORMAL,3,Week 4,2025-07-16
CLIN-2025-042,LB,CLIN-2025-042-SITE05-0045,6,WBC,White blood cell count,10.65,K/uL,10.65,K/uL,NORMAL,3,Week 4,2025-07-16
CLIN-2025-042,LB,CLIN-2025-042-SITE05-0045,7,PLT,Platelet count,404.84,K/uL,404.84,K/uL,HIGH,3,Week 4,2025-07-16
CLIN-2025-042,LB,CLIN-2025-042-SITE05-0045,8,GLUC,Glucose,81.60,mg/dL,81.6,mg/dL,NORMAL,3,Week 4,2025-07-16
CLIN-2025-042,LB,CLIN-2025-042-SITE05-0045,1,ALT,Alanine aminotransferase,19.69,U/L,19.69,U/L,NORMAL,4,Week 8,2025-08-13
CLIN-2025-042,LB,CLIN-2025-042-SITE05-0045,2,AST,Aspartate aminotransferase,21.25,U/L,21.25,U/L,NORMAL,4,Week 8,2025-08-13
CLIN-2025-042,LB,CLIN-2025-042-SITE05-0045,3,BILI,Bilirubin total,0.81,mg/dL,0.81,mg/dL,NORMAL,4,Week 8,2025-08-13
CLIN-2025-042,LB,CLIN-2025-042-SITE05-0045,4,CREAT,Creatinine,1.18,mg/dL,1.18,mg/dL,NORMAL,4,Week 8,2025-08-13
CLIN-2025-042,LB,CLIN-2025-042-SITE05-0045,5,HGB,Hemoglobin,13.58,g/dL,13.58,g/dL,NORMAL,4,Week 8,2025-08-13
CLIN-2025-042,LB,CLIN-2025-042-SITE05-0045,6,WBC,White blood cell count,5.58,K/uL,5.58,K/uL,NORMAL,4,Week 8,2025-08-13
CLIN-2025-042,LB,CLIN-2025-042-SITE05-0045,7,PLT,Platelet count,284.78,K/uL,284.78,K/uL,NORMAL,4,Week 8,2025-08-13
CLIN-2025-042,LB,CLIN-2025-042-SITE05-0045,8,GLUC,Glucose,87.65,mg/dL,87.65,mg/dL,NORMAL,4,Week 8,2025-08-13
CLIN-2025-042,LB,CLIN-2025-042-SITE01-0046,1,ALT,Alanine aminotransferase,4.58,U/L,4.58,U/L,LOW,1,Screening,2025-04-09
CLIN-2025-042,LB,CLIN-2025-042-SITE01-0046,2,AST,Aspartate aminotransferase,11.40,U/L,11.4,U/L,NORMAL,1,Screening,2025-04-09
CLIN-2025-042,LB,CLIN-2025-042-SITE01-0046,3,BILI,Bilirubin total,0.15,mg/dL,0.15,mg/dL,NORMAL,1,Screening,2025-04-09
CLIN-2025-042,LB,CLIN-2025-042-SITE01-0046,4,CREAT,Creatinine,1.03,mg/dL,1.03,mg/dL,NORMAL,1,Screening,2025-04-09
CLIN-2025-042,LB,CLIN-2025-042-SITE01-0046,5,HGB,Hemoglobin,15.16,g/dL,15.16,g/dL,NORMAL,1,Screening,2025-04-09
CLIN-2025-042,LB,CLIN-2025-042-SITE01-0046,6,WBC,White blood cell count,7.66,K/uL,7.66,K/uL,NORMAL,1,Screening,2025-04-09
CLIN-2025-042,LB,CLIN-2025-042-SITE01-0046,7,PLT,Platelet count,327.48,K/uL,327.48,K/uL,NORMAL,1,Screening,2025-04-09
CLIN-2025-042,LB,CLIN-2025-042-SITE01-0046,8,GLUC,Glucose,40.00,mg/dL,40.0,mg/dL,LOW,1,Screening,2025-04-09
CLIN-2025-042,LB,CLIN-2025-042-SITE01-0046,1,ALT,Alanine aminotransferase,48.95,U/L,48.95,U/L,NORMAL,2,Baseline,2025-06-11
CLIN-2025-042,LB,CLIN-2025-042-SITE01-0046,2,AST,Aspartate aminotransferase,11.94,U/L,11.94,U/L,NORMAL,2,Baseline,2025-06-11
CLIN-2025-042,LB,CLIN-2025-042-SITE01-0046,3,BILI,Bilirubin total,0.10,mg/dL,0.1,mg/dL,LOW,2,Baseline,2025-06-11
CLIN-2025-042,LB,CLIN-2025-042-SITE01-0046,4,CREAT,Creatinine,1.15,mg/dL,1.15,mg/dL,NORMAL,2,Baseline,2025-06-11
CLIN-2025-042,LB,CLIN-2025-042-SITE01-0046,5,HGB,Hemoglobin,15.37,g/dL,15.37,g/dL,NORMAL,2,Baseline,2025-06-11
CLIN-2025-042,LB,CLIN-2025-042-SITE01-0046,6,WBC,White blood cell count,6.94,K/uL,6.94,K/uL,NORMAL,2,Baseline,2025-06-11
CLIN-2025-042,LB,CLIN-2025-042-SITE01-0046,7,PLT,Platelet count,329.24,K/uL,329.24,K/uL,NORMAL,2,Baseline,2025-06-11
CLIN-2025-042,LB,CLIN-2025-042-SITE01-0046,8,GLUC,Glucose,79.81,mg/dL,79.81,mg/dL,NORMAL,2,Baseline,2025-06-11
CLIN-2025-042,LB,CLIN-2025-042-SITE01-0046,1,ALT,Alanine aminotransferase,26.62,U/L,26.62,U/L,NORMAL,3,Week 4,2025-07-09
CLIN-2025-042,LB,CLIN-2025-042-SITE01-0046,2,AST,Aspartate aminotransferase,19.14,U/L,19.14,U/L,NORMAL,3,Week 4,2025-07-09
CLIN-2025-042,LB,CLIN-2025-042-SITE01-0046,3,BILI,Bilirubin total,0.51,mg/dL,0.51,mg/dL,NORMAL,3,Week 4,2025-07-09
CLIN-2025-042,LB,CLIN-2025-042-SITE01-0046,4,CREAT,Creatinine,0.87,mg/dL,0.87,mg/dL,NORMAL,3,Week 4,2025-07-09
CLIN-2025-042,LB,CLIN-2025-042-SITE01-0046,5,HGB,Hemoglobin,16.34,g/dL,16.34,g/dL,NORMAL,3,Week 4,2025-07-09
CLIN-2025-042,LB,CLIN-2025-042-SITE01-0046,6,WBC,White blood cell count,10.39,K/uL,10.39,K/uL,NORMAL,3,Week 4,2025-07-09
CLIN-2025-042,LB,CLIN-2025-042-SITE01-0046,7,PLT,Platelet count,298.95,K/uL,298.95,K/uL,NORMAL,3,Week 4,2025-07-09
CLIN-2025-042,LB,CLIN-2025-042-SITE01-0046,8,GLUC,Glucose,88.15,mg/dL,88.15,mg/dL,NORMAL,3,Week 4,2025-07-09
CLIN-2025-042,LB,CLIN-2025-042-SITE01-0046,1,ALT,Alanine aminotransferase,35.92,U/L,35.92,U/L,NORMAL,4,Week 8,2025-08-06
CLIN-2025-042,LB,CLIN-2025-042-SITE01-0046,2,AST,Aspartate aminotransferase,4.81,U/L,4.81,U/L,LOW,4,Week 8,2025-08-06
CLIN-2025-042,LB,CLIN-2025-042-SITE01-0046,3,BILI,Bilirubin total,1.40,mg/dL,1.4,mg/dL,HIGH,4,Week 8,2025-08-06
CLIN-2025-042,LB,CLIN-2025-042-SITE01-0046,4,CREAT,Creatinine,0.86,mg/dL,0.86,mg/dL,NORMAL,4,Week 8,2025-08-06
CLIN-2025-042,LB,CLIN-2025-042-SITE01-0046,5,HGB,Hemoglobin,15.86,g/dL,15.86,g/dL,NORMAL,4,Week 8,2025-08-06
CLIN-2025-042,LB,CLIN-2025-042-SITE01-0046,6,WBC,White blood cell count,8.03,K/uL,8.03,K/uL,NORMAL,4,Week 8,2025-08-06
CLIN-2025-042,LB,CLIN-2025-042-SITE01-0046,7,PLT,Platelet count,199.09,K/uL,199.09,K/uL,NORMAL,4,Week 8,2025-08-06
CLIN-2025-042,LB,CLIN-2025-042-SITE01-0046,8,GLUC,Glucose,87.88,mg/dL,87.88,mg/dL,NORMAL,4,Week 8,2025-08-06
CLIN-2025-042,LB,CLIN-2025-042-SITE02-0047,1,ALT,Alanine aminotransferase,22.72,U/L,22.72,U/L,NORMAL,1,Screening,2025-05-16
CLIN-2025-042,LB,CLIN-2025-042-SITE02-0047,2,AST,Aspartate aminotransferase,28.64,U/L,28.64,U/L,NORMAL,1,Screening,2025-05-16
CLIN-2025-042,LB,CLIN-2025-042-SITE02-0047,3,BILI,Bilirubin total,0.35,mg/dL,0.35,mg/dL,NORMAL,1,Screening,2025-05-16
CLIN-2025-042,LB,CLIN-2025-042-SITE02-0047,4,CREAT,Creatinine,0.58,mg/dL,0.58,mg/dL,LOW,1,Screening,2025-05-16
CLIN-2025-042,LB,CLIN-2025-042-SITE02-0047,5,HGB,Hemoglobin,15.11,g/dL,15.11,g/dL,NORMAL,1,Screening,2025-05-16
CLIN-2025-042,LB,CLIN-2025-042-SITE02-0047,6,WBC,White blood cell count,9.23,K/uL,9.23,K/uL,NORMAL,1,Screening,2025-05-16
CLIN-2025-042,LB,CLIN-2025-042-SITE02-0047,7,PLT,Platelet count,233.44,K/uL,233.44,K/uL,NORMAL,1,Screening,2025-05-16
CLIN-2025-042,LB,CLIN-2025-042-SITE02-0047,8,GLUC,Glucose,101.38,mg/dL,101.38,mg/dL,NORMAL,1,Screening,2025-05-16
CLIN-2025-042,LB,CLIN-2025-042-SITE02-0047,1,ALT,Alanine aminotransferase,3.68,U/L,3.68,U/L,LOW,2,Baseline,2025-07-18
CLIN-2025-042,LB,CLIN-2025-042-SITE02-0047,2,AST,Aspartate aminotransferase,29.55,U/L,29.55,U/L,NORMAL,2,Baseline,2025-07-18
CLIN-2025-042,LB,CLIN-2025-042-SITE02-0047,3,BILI,Bilirubin total,0.56,mg/dL,0.56,mg/dL,NORMAL,2,Baseline,2025-07-18
CLIN-2025-042,LB,CLIN-2025-042-SITE02-0047,4,CREAT,Creatinine,1.23,mg/dL,1.23,mg/dL,NORMAL,2,Baseline,2025-07-18
CLIN-2025-042,LB,CLIN-2025-042-SITE02-0047,5,HGB,Hemoglobin,15.50,g/dL,15.5,g/dL,NORMAL,2,Baseline,2025-07-18
CLIN-2025-042,LB,CLIN-2025-042-SITE02-0047,6,WBC,White blood cell count,9.52,K/uL,9.52,K/uL,NORMAL,2,Baseline,2025-07-18
CLIN-2025-042,LB,CLIN-2025-042-SITE02-0047,7,PLT,Platelet count,214.47,K/uL,219.9805735433624,K/uL,NORMAL,2,Baseline,2025-07-18
CLIN-2025-042,LB,CLIN-2025-042-SITE02-0047,8,GLUC,Glucose,77.54,mg/dL,77.54,mg/dL,NORMAL,2,Baseline,2025-07-18
CLIN-2025-042,LB,CLIN-2025-042-SITE02-0047,1,ALT,Alanine aminotransferase,70.81,U/L,70.81,U/L,HIGH,3,Week 4,2025-08-15
CLIN-2025-042,LB,CLIN-2025-042-SITE02-0047,2,AST,Aspartate aminotransferase,28.17,U/L,28.17,U/L,NORMAL,3,Week 4,2025-08-15
CLIN-2025-042,LB,CLIN-2025-042-SITE02-0047,3,BILI,Bilirubin total,0.66,mg/dL,0.66,mg/dL,NORMAL,3,Week 4,2025-08-15
CLIN-2025-042,LB,CLIN-2025-042-SITE02-0047,4,CREAT,Creatinine,1.23,mg/dL,1.23,mg/dL,NORMAL,3,Week 4,2025-08-15
CLIN-2025-042,LB,CLIN-2025-042-SITE02-0047,5,HGB,Hemoglobin,4.91,g/dL,4.91,g/dL,LOW,3,Week 4,2025-08-15
CLIN-2025-042,LB,CLIN-2025-042-SITE02-0047,6,WBC,White blood cell count,8.27,K/uL,8.27,K/uL,NORMAL,3,Week 4,2025-08-15
CLIN-2025-042,LB,CLIN-2025-042-SITE02-0047,7,PLT,Platelet count,211.55,K/uL,211.55,K/uL,NORMAL,3,Week 4,2025-08-15
CLIN-2025-042,LB,CLIN-2025-042-SITE02-0047,8,GLUC,Glucose,87.08,mg/dL,87.08,mg/dL,NORMAL,3,Week 4,2025-08-15
CLIN-2025-042,LB,CLIN-2025-042-SITE02-0047,1,ALT,Alanine aminotransferase,33.86,U/L,33.86,U/L,NORMAL,4,Week 8,2025-09-12
CLIN-2025-042,LB,CLIN-2025-042-SITE02-0047,2,AST,Aspartate aminotransferase,36.63,U/L,36.63,U/L,NORMAL,4,Week 8,2025-09-12
CLIN-2025-042,LB,CLIN-2025-042-SITE02-0047,3,BILI,Bilirubin total,0.42,mg/dL,0.42,mg/dL,NORMAL,4,Week 8,2025-09-12
CLIN-2025-042,LB,CLIN-2025-042-SITE02-0047,4,CREAT,Creatinine,1.26,mg/dL,1.26,mg/dL,NORMAL,4,Week 8,2025-09-12
CLIN-2025-042,LB,CLIN-2025-042-SITE02-0047,5,HGB,Hemoglobin,10.15,g/dL,10.15,g/dL,LOW,4,Week 8,2025-09-12
CLIN-2025-042,LB,CLIN-2025-042-SITE02-0047,6,WBC,White blood cell count,9.39,K/uL,9.39,K/uL,NORMAL,4,Week 8,2025-09-12
CLIN-2025-042,LB,CLIN-2025-042-SITE02-0047,7,PLT,Platelet count,214.91,K/uL,214.91,K/uL,NORMAL,4,Week 8,2025-09-12
CLIN-2025-042,LB,CLIN-2025-042-SITE02-0047,8,GLUC,Glucose,24.24,mg/dL,24.24,mg/dL,LOW,4,Week 8,2025-09-12
CLIN-2025-042,LB,CLIN-2025-042-SITE03-0048,1,ALT,Alanine aminotransferase,37.97,U/L,37.97,U/L,NORMAL,1,Screening,2025-03-17
CLIN-2025-042,LB,CLIN-2025-042-SITE03-0048,2,AST,Aspartate aminotransferase,7.37,U/L,7.37,U/L,LOW,1,Screening,2025-03-17
CLIN-2025-042,LB,CLIN-2025-042-SITE03-0048,3,BILI,Bilirubin total,0.97,mg/dL,0.97,mg/dL,NORMAL,1,Screening,2025-03-17
CLIN-2025-042,LB,CLIN-2025-042-SITE03-0048,4,CREAT,Creatinine,1.11,mg/dL,1.11,mg/dL,NORMAL,1,Screening,2025-03-17
CLIN-2025-042,LB,CLIN-2025-042-SITE03-0048,5,HGB,Hemoglobin,35.93,g/dL,35.93,g/dL,HIGH,1,Screening,2025-03-17
CLIN-2025-042,LB,CLIN-2025-042-SITE03-0048,6,WBC,White blood cell count,7.66,K/uL,7.66,K/uL,NORMAL,1,Screening,2025-03-17
CLIN-2025-042,LB,CLIN-2025-042-SITE03-0048,7,PLT,Platelet count,175.59,K/uL,175.59,K/uL,NORMAL,1,Screening,2025-03-17
CLIN-2025-042,LB,CLIN-2025-042-SITE03-0048,8,GLUC,Glucose,60.71,mg/dL,60.71,mg/dL,LOW,1,Screening,2025-03-17
CLIN-2025-042,LB,CLIN-2025-042-SITE03-0048,1,ALT,Alanine aminotransferase,38.28,U/L,38.28,U/L,NORMAL,2,Baseline,2025-05-19
CLIN-2025-042,LB,CLIN-2025-042-SITE03-0048,2,AST,Aspartate aminotransferase,33.95,U/L,33.95,U/L,NORMAL,2,Baseline,2025-05-19
CLIN-2025-042,LB,CLIN-2025-042-SITE03-0048,3,BILI,Bilirubin total,0.10,mg/dL,0.1,mg/dL,LOW,2,Baseline,2025-05-19
CLIN-2025-042,LB,CLIN-2025-042-SITE03-0048,4,CREAT,Creatinine,1.70,mg/dL,1.7,mg/dL,HIGH,2,Baseline,2025-05-19
CLIN-2025-042,LB,CLIN-2025-042-SITE03-0048,5,HGB,Hemoglobin,15.48,g/dL,15.48,g/dL,NORMAL,2,Baseline,2025-05-19
CLIN-2025-042,LB,CLIN-2025-042-SITE03-0048,6,WBC,White blood cell count,13.64,K/uL,13.64,K/uL,HIGH,2,Baseline,2025-05-19
CLIN-2025-042,LB,CLIN-2025-042-SITE03-0048,7,PLT,Platelet count,104.39,K/uL,104.39,K/uL,LOW,2,Baseline,2025-05-19
CLIN-2025-042,LB,CLIN-2025-042-SITE03-0048,8,GLUC,Glucose,94.37,mg/dL,94.37,mg/dL,NORMAL,2,Baseline,2025-05-19
CLIN-2025-042,LB,CLIN-2025-042-SITE03-0048,1,ALT,Alanine aminotransferase,48.65,U/L,48.65,U/L,NORMAL,3,Week 4,2025-06-16
CLIN-2025-042,LB,CLIN-2025-042-SITE03-0048,2,AST,Aspartate aminotransferase,51.51,U/L,51.51,U/L,HIGH,3,Week 4,2025-06-16
CLIN-2025-042,LB,CLIN-2025-042-SITE03-0048,3,BILI,Bilirubin total,1.39,mg/dL,1.39,mg/dL,HIGH,3,Week 4,2025-06-16
CLIN-2025-042,LB,CLIN-2025-042-SITE03-0048,4,CREAT,Creatinine,1.01,mg/dL,1.01,mg/dL,NORMAL,3,Week 4,2025-06-16
CLIN-2025-042,LB,CLIN-2025-042-SITE03-0048,5,HGB,Hemoglobin,16.14,g/dL,16.14,g/dL,NORMAL,3,Week 4,2025-06-16
CLIN-2025-042,LB,CLIN-2025-042-SITE03-0048,6,WBC,White blood cell count,9.79,K/uL,9.79,K/uL,NORMAL,3,Week 4,2025-06-16
CLIN-2025-042,LB,CLIN-2025-042-SITE03-0048,7,PLT,Platelet count,254.86,K/uL,254.86,K/uL,NORMAL,3,Week 4,2025-06-16
CLIN-2025-042,LB,CLIN-2025-042-SITE03-0048,8,GLUC,Glucose,103.19,mg/dL,103.19,mg/dL,HIGH,3,Week 4,2025-06-16
CLIN-2025-042,LB,CLIN-2025-042-SITE03-0048,1,ALT,Alanine aminotransferase,22.84,U/L,22.84,U/L,NORMAL,4,Week 8,2025-07-14
CLIN-2025-042,LB,CLIN-2025-042-SITE03-0048,2,AST,Aspartate aminotransferase,7.94,U/L,7.94,U/L,NORMAL,4,Week 8,2025-07-14
CLIN-2025-042,LB,CLIN-2025-042-SITE03-0048,3,BILI,Bilirubin total,0.54,mg/dL,0.54,mg/dL,NORMAL,4,Week 8,2025-07-14
CLIN-2025-042,LB,CLIN-2025-042-SITE03-0048,4,CREAT,Creatinine,0.46,mg/dL,0.46,mg/dL,LOW,4,Week 8,2025-07-14
CLIN-2025-042,LB,CLIN-2025-042-SITE03-0048,5,HGB,Hemoglobin,5.46,g/dL,5.46,g/dL,LOW,4,Week 8,2025-07-14
CLIN-2025-042,LB,CLIN-2025-042-SITE03-0048,6,WBC,White blood cell count,7.85,K/uL,7.85,K/uL,NORMAL,4,Week 8,2025-07-14
CLIN-2025-042,LB,CLIN-2025-042-SITE03-0048,7,PLT,Platelet count,413.89,K/uL,413.89,K/uL,HIGH,4,Week 8,2025-07-14
CLIN-2025-042,LB,CLIN-2025-042-SITE03-0048,8,GLUC,Glucose,77.57,mg/dL,77.57,mg/dL,NORMAL,4,Week 8,2025-07-14
CLIN-2025-042,LB,CLIN-2025-042-SITE04-0049,1,ALT,Alanine aminotransferase,30.44,U/L,30.44,U/L,NORMAL,1,Screening,2025-03-17
CLIN-2025-042,LB,CLIN-2025-042-SITE04-0049,2,AST,Aspartate aminotransferase,19.04,U/L,19.04,U/L,NORMAL,1,Screening,2025-03-17
CLIN-2025-042,LB,CLIN-2025-042-SITE04-0049,3,BILI,Bilirubin total,1.22,mg/dL,1.22,mg/dL,HIGH,1,Screening,2025-03-17
CLIN-2025-042,LB,CLIN-2025-042-SITE04-0049,4,CREAT,Creatinine,1.77,mg/dL,1.77,mg/dL,HIGH,1,Screening,2025-03-17
CLIN-2025-042,LB,CLIN-2025-042-SITE04-0049,5,HGB,Hemoglobin,13.51,g/dL,13.51,g/dL,NORMAL,1,Screening,2025-03-17
CLIN-2025-042,LB,CLIN-2025-042-SITE04-0049,6,WBC,White blood cell count,8.87,K/uL,8.87,K/uL,NORMAL,1,Screening,2025-03-17
CLIN-2025-042,LB,CLIN-2025-042-SITE04-0049,7,PLT,Platelet count,296.05,K/uL,296.05,K/uL,NORMAL,1,Screening,2025-03-17
CLIN-2025-042,LB,CLIN-2025-042-SITE04-0049,8,GLUC,Glucose,103.92,mg/dL,103.92,mg/dL,NORMAL,1,Screening,2025-03-17
CLIN-2025-042,LB,CLIN-2025-042-SITE04-0049,1,ALT,Alanine aminotransferase,64.50,U/L,64.5,U/L,HIGH,2,Baseline,2025-05-19
CLIN-2025-042,LB,CLIN-2025-042-SITE04-0049,2,AST,Aspartate aminotransferase,26.97,U/L,26.939225113603154,U/L,NORMAL,2,Baseline,2025-05-19
CLIN-2025-042,LB,CLIN-2025-042-SITE04-0049,3,BILI,Bilirubin total,0.10,mg/dL,0.1,mg/dL,LOW,2,Baseline,2025-05-19
CLIN-2025-042,LB,CLIN-2025-042-SITE04-0049,4,CREAT,Creatinine,1.21,mg/dL,1.21,mg/dL,NORMAL,2,Baseline,2025-05-19
CLIN-2025-042,LB,CLIN-2025-042-SITE04-0049,5,HGB,Hemoglobin,15.57,g/dL,15.57,g/dL,NORMAL,2,Baseline,2025-05-19
CLIN-2025-042,LB,CLIN-2025-042-SITE04-0049,6,WBC,White blood cell count,5.16,K/uL,5.16,K/uL,NORMAL,2,Baseline,2025-05-19
CLIN-2025-042,LB,CLIN-2025-042-SITE04-0049,7,PLT,Platelet count,339.43,K/uL,339.43,K/uL,NORMAL,2,Baseline,2025-05-19
CLIN-2025-042,LB,CLIN-2025-042-SITE04-0049,8,GLUC,Glucose,81.22,mg/dL,81.22,mg/dL,NORMAL,2,Baseline,2025-05-19
CLIN-2025-042,LB,CLIN-2025-042-SITE04-0049,1,ALT,Alanine aminotransferase,51.35,U/L,51.35,U/L,NORMAL,3,Week 4,2025-06-16
CLIN-2025-042,LB,CLIN-2025-042-SITE04-0049,2,AST,Aspartate aminotransferase,19.24,U/L,19.24,U/L,NORMAL,3,Week 4,2025-06-16
CLIN-2025-042,LB,CLIN-2025-042-SITE04-0049,3,BILI,Bilirubin total,0.55,mg/dL,0.55,mg/dL,NORMAL,3,Week 4,2025-06-16
CLIN-2025-042,LB,CLIN-2025-042-SITE04-0049,4,CREAT,Creatinine,1.02,mg/dL,1.02,mg/dL,NORMAL,3,Week 4,2025-06-16
CLIN-2025-042,LB,CLIN-2025-042-SITE04-0049,5,HGB,Hemoglobin,14.97,g/dL,14.97,g/dL,NORMAL,3,Week 4,2025-06-16
CLIN-2025-042,LB,CLIN-2025-042-SITE04-0049,6,WBC,White blood cell count,6.80,K/uL,6.8,K/uL,NORMAL,3,Week 4,2025-06-16
CLIN-2025-042,LB,CLIN-2025-042-SITE04-0049,7,PLT,Platelet count,298.24,K/uL,298.24,K/uL,NORMAL,3,Week 4,2025-06-16
CLIN-2025-042,LB,CLIN-2025-042-SITE04-0049,8,GLUC,Glucose,101.12,mg/dL,101.12,mg/dL,HIGH,3,Week 4,2025-06-16
CLIN-2025-042,LB,CLIN-2025-042-SITE04-0049,1,ALT,Alanine aminotransferase,4.21,U/L,4.21,U/L,LOW,4,Week 8,2025-07-14
CLIN-2025-042,LB,CLIN-2025-042-SITE04-0049,2,AST,Aspartate aminotransferase,68.26,U/L,68.26,U/L,HIGH,4,Week 8,2025-07-14
CLIN-2025-042,LB,CLIN-2025-042-SITE04-0049,3,BILI,Bilirubin total,0.75,mg/dL,0.75,mg/dL,NORMAL,4,Week 8,2025-07-14
CLIN-2025-042,LB,CLIN-2025-042-SITE04-0049,4,CREAT,Creatinine,0.75,mg/dL,0.75,mg/dL,NORMAL,4,Week 8,2025-07-14
CLIN-2025-042,LB,CLIN-2025-042-SITE04-0049,5,HGB,Hemoglobin,16.49,g/dL,16.49,g/dL,NORMAL,4,Week 8,2025-07-14
CLIN-2025-042,LB,CLIN-2025-042-SITE04-0049,6,WBC,White blood cell count,6.23,K/uL,6.23,K/uL,NORMAL,4,Week 8,2025-07-14
CLIN-2025-042,LB,CLIN-2025-042-SITE04-0049,7,PLT,Platelet count,430.94,K/uL,430.94,K/uL,HIGH,4,Week 8,2025-07-14
CLIN-2025-042,LB,CLIN-2025-042-SITE04-0049,8,GLUC,Glucose,86.05,mg/dL,86.05,mg/dL,NORMAL,4,Week 8,2025-07-14
CLIN-2025-042,LB,CLIN-2025-042-SITE05-0050,1,ALT,Alanine aminotransferase,36.71,U/L,36.71,U/L,NORMAL,1,Screening,2025-02-15
CLIN-2025-042,LB,CLIN-2025-042-SITE05-0050,2,AST,Aspartate aminotransferase,30.98,U/L,30.98,U/L,NORMAL,1,Screening,2025-02-15
CLIN-2025-042,LB,CLIN-2025-042-SITE05-0050,3,BILI,Bilirubin total,0.67,mg/dL,0.67,mg/dL,NORMAL,1,Screening,2025-02-15
CLIN-2025-042,LB,CLIN-2025-042-SITE05-0050,4,CREAT,Creatinine,0.98,mg/dL,0.98,mg/dL,NORMAL,1,Screening,2025-02-15
CLIN-2025-042,LB,CLIN-2025-042-SITE05-0050,5,HGB,Hemoglobin,14.11,g/dL,14.11,g/dL,NORMAL,1,Screening,2025-02-15
CLIN-2025-042,LB,CLIN-2025-042-SITE05-0050,6,WBC,White blood cell count,8.13,K/uL,8.13,K/uL,NORMAL,1,Screening,2025-02-15
CLIN-2025-042,LB,CLIN-2025-042-SITE05-0050,7,PLT,Platelet count,299.46,K/uL,299.46,K/uL,NORMAL,1,Screening,2025-02-15
CLIN-2025-042,LB,CLIN-2025-042-SITE05-0050,8,GLUC,Glucose,86.94,mg/dL,86.94,mg/dL,NORMAL,1,Screening,2025-02-15
CLIN-2025-042,LB,CLIN-2025-042-SITE05-0050,1,ALT,Alanine aminotransferase,28.88,U/L,28.88,U/L,NORMAL,2,Baseline,2025-04-19
CLIN-2025-042,LB,CLIN-2025-042-SITE05-0050,2,AST,Aspartate aminotransferase,3.53,U/L,3.53,U/L,LOW,2,Baseline,2025-04-19
CLIN-2025-042,LB,CLIN-2025-042-SITE05-0050,3,BILI,Bilirubin total,0.29,mg/dL,0.29,mg/dL,NORMAL,2,Baseline,2025-04-19
CLIN-2025-042,LB,CLIN-2025-042-SITE05-0050,4,CREAT,Creatinine,3.50,mg/dL,3.5,mg/dL,HIGH,2,Baseline,2025-04-19
CLIN-2025-042,LB,CLIN-2025-042-SITE05-0050,5,HGB,Hemoglobin,14.40,g/dL,14.4,g/dL,NORMAL,2,Baseline,2025-04-19
CLIN-2025-042,LB,CLIN-2025-042-SITE05-0050,6,WBC,White blood cell count,3.85,K/uL,3.85,K/uL,LOW,2,Baseline,2025-04-19
CLIN-2025-042,LB,CLIN-2025-042-SITE05-0050,7,PLT,Platelet count,745.41,K/uL,745.41,K/uL,HIGH,2,Baseline,2025-04-19
CLIN-2025-042,LB,CLIN-2025-042-SITE05-0050,8,GLUC,Glucose,82.02,mg/dL,82.02,mg/dL,NORMAL,2,Baseline,2025-04-19
CLIN-2025-042,LB,CLIN-2025-042-SITE05-0050,1,ALT,Alanine aminotransferase,42.74,U/L,42.74,U/L,NORMAL,3,Week 4,2025-05-17
CLIN-2025-042,LB,CLIN-2025-042-SITE05-0050,2,AST,Aspartate aminotransferase,19.17,U/L,19.17,U/L,NORMAL,3,Week 4,2025-05-17
CLIN-2025-042,LB,CLIN-2025-042-SITE05-0050,3,BILI,Bilirubin total,0.77,mg/dL,0.77,mg/dL,NORMAL,3,Week 4,2025-05-17
CLIN-2025-042,LB,CLIN-2025-042-SITE05-0050,4,CREAT,Creatinine,0.48,mg/dL,0.48,mg/dL,LOW,3,Week 4,2025-05-17
CLIN-2025-042,LB,CLIN-2025-042-SITE05-0050,5,HGB,Hemoglobin,16.13,g/dL,16.13,g/dL,NORMAL,3,Week 4,2025-05-17
CLIN-2025-042,LB,CLIN-2025-042-SITE05-0050,6,WBC,White blood cell count,8.02,K/uL,8.02,K/uL,NORMAL,3,Week 4,2025-05-17
CLIN-2025-042,LB,CLIN-2025-042-SITE05-0050,7,PLT,Platelet count,402.78,K/uL,402.78,K/uL,HIGH,3,Week 4,2025-05-17
CLIN-2025-042,LB,CLIN-2025-042-SITE05-0050,8,GLUC,Glucose,88.58,mg/dL,88.58,mg/dL,NORMAL,3,Week 4,2025-05-17
CLIN-2025-042,LB,CLIN-2025-042-SITE05-0050,1,ALT,Alanine aminotransferase,2.27,U/L,2.27,U/L,LOW,4,Week 8,2025-06-14
CLIN-2025-042,LB,CLIN-2025-042-SITE05-0050,2,AST,Aspartate aminotransferase,34.58,U/L,34.58,U/L,NORMAL,4,Week 8,2025-06-14
CLIN-2025-042,LB,CLIN-2025-042-SITE05-0050,3,BILI,Bilirubin total,0.28,mg/dL,0.28,mg/dL,NORMAL,4,Week 8,2025-06-14
CLIN-2025-042,LB,CLIN-2025-042-SITE05-0050,4,CREAT,Creatinine,0.93,mg/dL,0.93,mg/dL,NORMAL,4,Week 8,2025-06-14
CLIN-2025-042,LB,CLIN-2025-042-SITE05-0050,5,HGB,Hemoglobin,15.46,g/dL,15.46,g/dL,NORMAL,4,Week 8,2025-06-14
CLIN-2025-042,LB,CLIN-2025-042-SITE05-0050,6,WBC,White blood cell count,5.15,K/uL,5.15,K/uL,NORMAL,4,Week 8,2025-06-14
CLIN-2025-042,LB,CLIN-2025-042-SITE05-0050,7,PLT,Platelet count,301.63,K/uL,301.63,K/uL,NORMAL,4,Week 8,2025-06-14
CLIN-2025-042,LB,CLIN-2025-042-SITE05-0050,8,GLUC,Glucose,83.67,mg/dL,83.67,mg/dL,NORMAL,4,Week 8,2025-06-14
CLIN-2025-042,LB,CLIN-2025-042-SITE01-0051,1,ALT,Alanine aminotransferase,34.86,U/L,34.86,U/L,NORMAL,1,Screening,2025-03-17
CLIN-2025-042,LB,CLIN-2025-042-SITE01-0051,2,AST,Aspartate aminotransferase,26.15,U/L,26.15,U/L,NORMAL,1,Screening,2025-03-17
CLIN-2025-042,LB,CLIN-2025-042-SITE01-0051,3,BILI,Bilirubin total,0.39,mg/dL,0.39,mg/dL,NORMAL,1,Screening,2025-03-17
CLIN-2025-042,LB,CLIN-2025-042-SITE01-0051,4,CREAT,Creatinine,0.80,mg/dL,0.8,mg/dL,NORMAL,1,Screening,2025-03-17
CLIN-2025-042,LB,CLIN-2025-042-SITE01-0051,5,HGB,Hemoglobin,16.03,g/dL,16.03,g/dL,NORMAL,1,Screening,2025-03-17
CLIN-2025-042,LB,CLIN-2025-042-SITE01-0051,6,WBC,White blood cell count,6.71,K/uL,6.71,K/uL,NORMAL,1,Screening,2025-03-17
CLIN-2025-042,LB,CLIN-2025-042-SITE01-0051,7,PLT,Platelet count,374.48,K/uL,374.48,K/uL,NORMAL,1,Screening,2025-03-17
CLIN-2025-042,LB,CLIN-2025-042-SITE01-0051,8,GLUC,Glucose,195.68,mg/dL,195.68,mg/dL,HIGH,1,Screening,2025-03-17
CLIN-2025-042,LB,CLIN-2025-042-SITE01-0051,1,ALT,Alanine aminotransferase,13.22,U/L,13.22,U/L,NORMAL,2,Baseline,2025-05-19
CLIN-2025-042,LB,CLIN-2025-042-SITE01-0051,2,AST,Aspartate aminotransferase,66.52,U/L,66.52,U/L,HIGH,2,Baseline,2025-05-19
CLIN-2025-042,LB,CLIN-2025-042-SITE01-0051,3,BILI,Bilirubin total,0.84,mg/dL,0.84,mg/dL,NORMAL,2,Baseline,2025-05-19
CLIN-2025-042,LB,CLIN-2025-042-SITE01-0051,4,CREAT,Creatinine,1.00,mg/dL,1.036375836649745,mg/dL,NORMAL,2,Baseline,2025-05-19
CLIN-2025-042,LB,CLIN-2025-042-SITE01-0051,5,HGB,Hemoglobin,16.51,g/dL,16.51,g/dL,NORMAL,2,Baseline,2025-05-19
CLIN-2025-042,LB,CLIN-2025-042-SITE01-0051,6,WBC,White blood cell count,17.78,K/uL,17.78,K/uL,HIGH,2,Baseline,2025-05-19
CLIN-2025-042,LB,CLIN-2025-042-SITE01-0051,7,PLT,Platelet count,285.08,K/uL,285.08,K/uL,NORMAL,2,Baseline,2025-05-19
CLIN-2025-042,LB,CLIN-2025-042-SITE01-0051,8,GLUC,Glucose,89.14,mg/dL,89.14,mg/dL,NORMAL,2,Baseline,2025-05-19
CLIN-2025-042,LB,CLIN-2025-042-SITE01-0051,1,ALT,Alanine aminotransferase,20.21,U/L,20.21,U/L,NORMAL,3,Week 4,2025-06-16
CLIN-2025-042,LB,CLIN-2025-042-SITE01-0051,2,AST,Aspartate aminotransferase,83.50,U/L,83.5,U/L,HIGH,3,Week 4,2025-06-16
CLIN-2025-042,LB,CLIN-2025-042-SITE01-0051,3,BILI,Bilirubin total,1.34,mg/dL,1.34,mg/dL,HIGH,3,Week 4,2025-06-16
CLIN-2025-042,LB,CLIN-2025-042-SITE01-0051,4,CREAT,Creatinine,0.78,mg/dL,0.78,mg/dL,NORMAL,3,Week 4,2025-06-16
CLIN-2025-042,LB,CLIN-2025-042-SITE01-0051,5,HGB,Hemoglobin,11.53,g/dL,11.53,g/dL,LOW,3,Week 4,2025-06-16
CLIN-2025-042,LB,CLIN-2025-042-SITE01-0051,6,WBC,White blood cell count,2.52,K/uL,2.52,K/uL,LOW,3,Week 4,2025-06-16
CLIN-2025-042,LB,CLIN-2025-042-SITE01-0051,7,PLT,Platelet count,645.96,K/uL,645.96,K/uL,HIGH,3,Week 4,2025-06-16
CLIN-2025-042,LB,CLIN-2025-042-SITE01-0051,8,GLUC,Glucose,89.19,mg/dL,89.19,mg/dL,NORMAL,3,Week 4,2025-06-16
CLIN-2025-042,LB,CLIN-2025-042-SITE01-0051,1,ALT,Alanine aminotransferase,27.32,U/L,27.32,U/L,NORMAL,4,Week 8,2025-07-14
CLIN-2025-042,LB,CLIN-2025-042-SITE01-0051,2,AST,Aspartate aminotransferase,19.16,U/L,19.16,U/L,NORMAL,4,Week 8,2025-07-14
CLIN-2025-042,LB,CLIN-2025-042-SITE01-0051,3,BILI,Bilirubin total,0.26,mg/dL,0.26,mg/dL,NORMAL,4,Week 8,2025-07-14
CLIN-2025-042,LB,CLIN-2025-042-SITE01-0051,4,CREAT,Creatinine,0.98,mg/dL,0.98,mg/dL,NORMAL,4,Week 8,2025-07-14
CLIN-2025-042,LB,CLIN-2025-042-SITE01-0051,5,HGB,Hemoglobin,14.76,g/dL,14.76,g/dL,NORMAL,4,Week 8,2025-07-14
CLIN-2025-042,LB,CLIN-2025-042-SITE01-0051,6,WBC,White blood cell count,6.39,K/uL,6.39,K/uL,NORMAL,4,Week 8,2025-07-14
CLIN-2025-042,LB,CLIN-2025-042-SITE01-0051,7,PLT,Platelet count,207.00,K/uL,212.35731862362508,K/uL,NORMAL,4,Week 8,2025-07-14
CLIN-2025-042,LB,CLIN-2025-042-SITE01-0051,8,GLUC,Glucose,49.79,mg/dL,49.79,mg/dL,LOW,4,Week 8,2025-07-14
CLIN-2025-042,LB,CLIN-2025-042-SITE02-0052,1,ALT,Alanine aminotransferase,43.32,U/L,43.32,U/L,NORMAL,1,Screening,2025-01-11
CLIN-2025-042,LB,CLIN-2025-042-SITE02-0052,2,AST,Aspartate aminotransferase,10.02,U/L,10.02,U/L,NORMAL,1,Screening,2025-01-11
CLIN-2025-042,LB,CLIN-2025-042-SITE02-0052,3,BILI,Bilirubin total,0.93,mg/dL,0.93,mg/dL,NORMAL,1,Screening,2025-01-11
CLIN-2025-042,LB,CLIN-2025-042-SITE02-0052,4,CREAT,Creatinine,0.88,mg/dL,0.88,mg/dL,NORMAL,1,Screening,2025-01-11
CLIN-2025-042,LB,CLIN-2025-042-SITE02-0052,5,HGB,Hemoglobin,15.88,g/dL,15.88,g/dL,NORMAL,1,Screening,2025-01-11
CLIN-2025-042,LB,CLIN-2025-042-SITE02-0052,6,WBC,White blood cell count,8.11,K/uL,8.11,K/uL,NORMAL,1,Screening,2025-01-11
CLIN-2025-042,LB,CLIN-2025-042-SITE02-0052,7,PLT,Platelet count,331.69,K/uL,331.69,K/uL,NORMAL,1,Screening,2025-01-11
CLIN-2025-042,LB,CLIN-2025-042-SITE02-0052,8,GLUC,Glucose,88.85,mg/dL,88.85,mg/dL,NORMAL,1,Screening,2025-01-11
CLIN-2025-042,LB,CLIN-2025-042-SITE02-0052,1,ALT,Alanine aminotransferase,21.72,U/L,21.72,U/L,NORMAL,2,Baseline,2025-03-15
CLIN-2025-042,LB,CLIN-2025-042-SITE02-0052,2,AST,Aspartate aminotransferase,29.78,U/L,29.78,U/L,NORMAL,2,Baseline,2025-03-15
CLIN-2025-042,LB,CLIN-2025-042-SITE02-0052,3,BILI,Bilirubin total,0.78,mg/dL,0.78,mg/dL,NORMAL,2,Baseline,2025-03-15
CLIN-2025-042,LB,CLIN-2025-042-SITE02-0052,4,CREAT,Creatinine,1.08,mg/dL,1.08,mg/dL,NORMAL,2,Baseline,2025-03-15
CLIN-2025-042,LB,CLIN-2025-042-SITE02-0052,5,HGB,Hemoglobin,16.45,g/dL,16.45,g/dL,NORMAL,2,Baseline,2025-03-15
CLIN-2025-042,LB,CLIN-2025-042-SITE02-0052,6,WBC,White blood cell count,9.19,K/uL,9.19,K/uL,NORMAL,2,Baseline,2025-03-15
CLIN-2025-042,LB,CLIN-2025-042-SITE02-0052,7,PLT,Platelet count,367.19,K/uL,367.19,K/uL,NORMAL,2,Baseline,2025-03-15
CLIN-2025-042,LB,CLIN-2025-042-SITE02-0052,8,GLUC,Glucose,75.35,mg/dL,75.35,mg/dL,NORMAL,2,Baseline,2025-03-15
CLIN-2025-042,LB,CLIN-2025-042-SITE02-0052,1,ALT,Alanine aminotransferase,31.42,U/L,31.42,U/L,NORMAL,3,Week 4,2025-04-12
CLIN-2025-042,LB,CLIN-2025-042-SITE02-0052,2,AST,Aspartate aminotransferase,20.58,U/L,20.58,U/L,NORMAL,3,Week 4,2025-04-12
CLIN-2025-042,LB,CLIN-2025-042-SITE02-0052,3,BILI,Bilirubin total,0.25,mg/dL,0.25,mg/dL,NORMAL,3,Week 4,2025-04-12
CLIN-2025-042,LB,CLIN-2025-042-SITE02-0052,4,CREAT,Creatinine,1.05,mg/dL,1.05,mg/dL,NORMAL,3,Week 4,2025-04-12
CLIN-2025-042,LB,CLIN-2025-042-SITE02-0052,5,HGB,Hemoglobin,15.63,g/dL,15.63,g/dL,NORMAL,3,Week 4,2025-04-12
CLIN-2025-042,LB,CLIN-2025-042-SITE02-0052,6,WBC,White blood cell count,20.61,K/uL,20.61,K/uL,HIGH,3,Week 4,2025-04-12
CLIN-2025-042,LB,CLIN-2025-042-SITE02-0052,7,PLT,Platelet count,461.88,K/uL,461.88,K/uL,HIGH,3,Week 4,2025-04-12
CLIN-2025-042,LB,CLIN-2025-042-SITE02-0052,8,GLUC,Glucose,91.30,mg/dL,91.3,mg/dL,NORMAL,3,Week 4,2025-04-12
CLIN-2025-042,LB,CLIN-2025-042-SITE02-0052,1,ALT,Alanine aminotransferase,15.20,U/L,15.2,U/L,NORMAL,4,Week 8,2025-05-10
CLIN-2025-042,LB,CLIN-2025-042-SITE02-0052,2,AST,Aspartate aminotransferase,19.65,U/L,19.65,U/L,NORMAL,4,Week 8,2025-05-10
CLIN-2025-042,LB,CLIN-2025-042-SITE02-0052,3,BILI,Bilirubin total,1.87,mg/dL,1.9437450204060152,mg/dL,HIGH,4,Week 8,2025-05-10
CLIN-2025-042,LB,CLIN-2025-042-SITE02-0052,4,CREAT,Creatinine,0.33,mg/dL,0.33,mg/dL,LOW,4,Week 8,2025-05-10
CLIN-2025-042,LB,CLIN-2025-042-SITE02-0052,5,HGB,Hemoglobin,14.55,g/dL,14.55,g/dL,NORMAL,4,Week 8,2025-05-10
CLIN-2025-042,LB,CLIN-2025-042-SITE02-0052,6,WBC,White blood cell count,8.72,K/uL,8.72,K/uL,NORMAL,4,Week 8,2025-05-10
CLIN-2025-042,LB,CLIN-2025-042-SITE02-0052,7,PLT,Platelet count,268.05,K/uL,268.05,K/uL,NORMAL,4,Week 8,2025-05-10
CLIN-2025-042,LB,CLIN-2025-042-SITE02-0052,8,GLUC,Glucose,94.88,mg/dL,94.88,mg/dL,NORMAL,4,Week 8,2025-05-10
CLIN-2025-042,LB,CLIN-2025-042-SITE03-0053,1,ALT,Alanine aminotransferase,3.23,U/L,3.23,U/L,LOW,1,Screening,2025-04-01
CLIN-2025-042,LB,CLIN-2025-042-SITE03-0053,2,AST,Aspartate aminotransferase,20.65,U/L,20.65,U/L,NORMAL,1,Screening,2025-04-01
CLIN-2025-042,LB,CLIN-2025-042-SITE03-0053,3,BILI,Bilirubin total,0.10,mg/dL,0.1,mg/dL,LOW,1,Screening,2025-04-01
CLIN-2025-042,LB,CLIN-2025-042-SITE03-0053,4,CREAT,Creatinine,0.49,mg/dL,0.49,mg/dL,LOW,1,Screening,2025-04-01
CLIN-2025-042,LB,CLIN-2025-042-SITE03-0053,5,HGB,Hemoglobin,15.94,g/dL,15.94,g/dL,NORMAL,1,Screening,2025-04-01
CLIN-2025-042,LB,CLIN-2025-042-SITE03-0053,6,WBC,White blood cell count,2.74,K/uL,2.74,K/uL,LOW,1,Screening,2025-04-01
CLIN-2025-042,LB,CLIN-2025-042-SITE03-0053,7,PLT,Platelet count,244.58,K/uL,244.58,K/uL,NORMAL,1,Screening,2025-04-01
CLIN-2025-042,LB,CLIN-2025-042-SITE03-0053,8,GLUC,Glucose,82.10,mg/dL,82.1,mg/dL,NORMAL,1,Screening,2025-04-01
CLIN-2025-042,LB,CLIN-2025-042-SITE03-0053,1,ALT,Alanine aminotransferase,13.49,U/L,13.49,U/L,NORMAL,2,Baseline,2025-06-03
CLIN-2025-042,LB,CLIN-2025-042-SITE03-0053,2,AST,Aspartate aminotransferase,12.13,U/L,12.13,U/L,NORMAL,2,Baseline,2025-06-03
CLIN-2025-042,LB,CLIN-2025-042-SITE03-0053,3,BILI,Bilirubin total,0.53,mg/dL,0.53,mg/dL,NORMAL,2,Baseline,2025-06-03
CLIN-2025-042,LB,CLIN-2025-042-SITE03-0053,4,CREAT,Creatinine,1.08,mg/dL,1.08,mg/dL,NORMAL,2,Baseline,2025-06-03
CLIN-2025-042,LB,CLIN-2025-042-SITE03-0053,5,HGB,Hemoglobin,18.63,g/dL,18.63,g/dL,HIGH,2,Baseline,2025-06-03
CLIN-2025-042,LB,CLIN-2025-042-SITE03-0053,6,WBC,White blood cell count,15.13,K/uL,15.13,K/uL,HIGH,2,Baseline,2025-06-03
CLIN-2025-042,LB,CLIN-2025-042-SITE03-0053,7,PLT,Platelet count,485.59,K/uL,485.59,K/uL,HIGH,2,Baseline,2025-06-03
CLIN-2025-042,LB,CLIN-2025-042-SITE03-0053,8,GLUC,Glucose,83.88,mg/dL,83.88,mg/dL,NORMAL,2,Baseline,2025-06-03
CLIN-2025-042,LB,CLIN-2025-042-SITE03-0053,1,ALT,Alanine aminotransferase,37.17,U/L,37.17,U/L,NORMAL,3,Week 4,2025-07-01
CLIN-2025-042,LB,CLIN-2025-042-SITE03-0053,2,AST,Aspartate aminotransferase,36.67,U/L,36.67,U/L,NORMAL,3,Week 4,2025-07-01
CLIN-2025-042,LB,CLIN-2025-042-SITE03-0053,3,BILI,Bilirubin total,0.82,mg/dL,0.82,mg/dL,NORMAL,3,Week 4,2025-07-01
CLIN-2025-042,LB,CLIN-2025-042-SITE03-0053,4,CREAT,Creatinine,1.02,mg/dL,1.02,mg/dL,NORMAL,3,Week 4,2025-07-01
CLIN-2025-042,LB,CLIN-2025-042-SITE03-0053,5,HGB,Hemoglobin,14.65,g/dL,14.65,g/dL,NORMAL,3,Week 4,2025-07-01
CLIN-2025-042,LB,CLIN-2025-042-SITE03-0053,6,WBC,White blood cell count,7.19,K/uL,7.19,K/uL,NORMAL,3,Week 4,2025-07-01
CLIN-2025-042,LB,CLIN-2025-042-SITE03-0053,7,PLT,Platelet count,339.36,K/uL,339.36,K/uL,NORMAL,3,Week 4,2025-07-01
CLIN-2025-042,LB,CLIN-2025-042-SITE03-0053,8,GLUC,Glucose,84.34,mg/dL,84.34,mg/dL,NORMAL,3,Week 4,2025-07-01
CLIN-2025-042,LB,CLIN-2025-042-SITE03-0053,1,ALT,Alanine aminotransferase,30.59,U/L,30.59,U/L,NORMAL,4,Week 8,2025-07-29
CLIN-2025-042,LB,CLIN-2025-042-SITE03-0053,2,AST,Aspartate aminotransferase,29.16,U/L,29.16,U/L,NORMAL,4,Week 8,2025-07-29
CLIN-2025-042,LB,CLIN-2025-042-SITE03-0053,3,BILI,Bilirubin total,1.71,mg/dL,1.71,mg/dL,HIGH,4,Week 8,2025-07-29
CLIN-2025-042,LB,CLIN-2025-042-SITE03-0053,4,CREAT,Creatinine,1.10,mg/dL,1.1,mg/dL,NORMAL,4,Week 8,2025-07-29
CLIN-2025-042,LB,CLIN-2025-042-SITE03-0053,5,HGB,Hemoglobin,13.28,g/dL,13.28,g/dL,NORMAL,4,Week 8,2025-07-29
CLIN-2025-042,LB,CLIN-2025-042-SITE03-0053,6,WBC,White blood cell count,7.20,K/uL,7.2,K/uL,NORMAL,4,Week 8,2025-07-29
CLIN-2025-042,LB,CLIN-2025-042-SITE03-0053,7,PLT,Platelet count,232.73,K/uL,232.73,K/uL,NORMAL,4,Week 8,2025-07-29
CLIN-2025-042,LB,CLIN-2025-042-SITE03-0053,8,GLUC,Glucose,86.03,mg/dL,86.03,mg/dL,NORMAL,4,Week 8,2025-07-29
CLIN-2025-042,LB,CLIN-2025-042-SITE04-0054,1,ALT,Alanine aminotransferase,22.74,U/L,22.74,U/L,NORMAL,1,Screening,2025-06-17
CLIN-2025-042,LB,CLIN-2025-042-SITE04-0054,2,AST,Aspartate aminotransferase,17.13,U/L,17.13,U/L,NORMAL,1,Screening,2025-06-17
CLIN-2025-042,LB,CLIN-2025-042-SITE04-0054,3,BILI,Bilirubin total,1.51,mg/dL,1.51,mg/dL,NORMAL,1,Screening,2025-06-17
CLIN-2025-042,LB,CLIN-2025-042-SITE04-0054,4,CREAT,Creatinine,0.70,mg/dL,0.7,mg/dL,NORMAL,1,Screening,2025-06-17
CLIN-2025-042,LB,CLIN-2025-042-SITE04-0054,5,HGB,Hemoglobin,15.06,g/dL,15.06,g/dL,NORMAL,1,Screening,2025-06-17
CLIN-2025-042,LB,CLIN-2025-042-SITE04-0054,6,WBC,White blood cell count,8.29,K/uL,8.29,K/uL,NORMAL,1,Screening,2025-06-17
CLIN-2025-042,LB,CLIN-2025-042-SITE04-0054,7,PLT,Platelet count,94.45,K/uL,94.45,K/uL,LOW,1,Screening,2025-06-17
CLIN-2025-042,LB,CLIN-2025-042-SITE04-0054,8,GLUC,Glucose,92.28,mg/dL,92.28,mg/dL,NORMAL,1,Screening,2025-06-17
CLIN-2025-042,LB,CLIN-2025-042-SITE04-0054,1,ALT,Alanine aminotransferase,56.78,U/L,56.78,U/L,NORMAL,2,Baseline,2025-08-19
CLIN-2025-042,LB,CLIN-2025-042-SITE04-0054,2,AST,Aspartate aminotransferase,24.79,U/L,24.79,U/L,NORMAL,2,Baseline,2025-08-19
CLIN-2025-042,LB,CLIN-2025-042-SITE04-0054,3,BILI,Bilirubin total,0.62,mg/dL,0.62,mg/dL,NORMAL,2,Baseline,2025-08-19
CLIN-2025-042,LB,CLIN-2025-042-SITE04-0054,4,CREAT,Creatinine,0.75,mg/dL,0.75,mg/dL,NORMAL,2,Baseline,2025-08-19
CLIN-2025-042,LB,CLIN-2025-042-SITE04-0054,5,HGB,Hemoglobin,16.60,g/dL,16.6,g/dL,NORMAL,2,Baseline,2025-08-19
CLIN-2025-042,LB,CLIN-2025-042-SITE04-0054,6,WBC,White blood cell count,12.11,K/uL,12.11,K/uL,HIGH,2,Baseline,2025-08-19
CLIN-2025-042,LB,CLIN-2025-042-SITE04-0054,7,PLT,Platelet count,257.10,K/uL,257.1,K/uL,NORMAL,2,Baseline,2025-08-19
CLIN-2025-042,LB,CLIN-2025-042-SITE04-0054,8,GLUC,Glucose,74.57,mg/dL,74.57,mg/dL,NORMAL,2,Baseline,2025-08-19
CLIN-2025-042,LB,CLIN-2025-042-SITE04-0054,1,ALT,Alanine aminotransferase,2.17,U/L,2.17,U/L,LOW,3,Week 4,2025-09-16
CLIN-2025-042,LB,CLIN-2025-042-SITE04-0054,2,AST,Aspartate aminotransferase,30.15,U/L,30.15,U/L,NORMAL,3,Week 4,2025-09-16
CLIN-2025-042,LB,CLIN-2025-042-SITE04-0054,3,BILI,Bilirubin total,0.72,mg/dL,0.72,mg/dL,NORMAL,3,Week 4,2025-09-16
CLIN-2025-042,LB,CLIN-2025-042-SITE04-0054,4,CREAT,Creatinine,1.20,mg/dL,1.2,mg/dL,NORMAL,3,Week 4,2025-09-16
CLIN-2025-042,LB,CLIN-2025-042-SITE04-0054,5,HGB,Hemoglobin,19.01,g/dL,19.01,g/dL,HIGH,3,Week 4,2025-09-16
CLIN-2025-042,LB,CLIN-2025-042-SITE04-0054,6,WBC,White blood cell count,8.66,K/uL,8.66,K/uL,NORMAL,3,Week 4,2025-09-16
CLIN-2025-042,LB,CLIN-2025-042-SITE04-0054,7,PLT,Platelet count,190.16,K/uL,190.16,K/uL,NORMAL,3,Week 4,2025-09-16
CLIN-2025-042,LB,CLIN-2025-042-SITE04-0054,8,GLUC,Glucose,86.48,mg/dL,86.48,mg/dL,NORMAL,3,Week 4,2025-09-16
CLIN-2025-042,LB,CLIN-2025-042-SITE04-0054,1,ALT,Alanine aminotransferase,4.40,U/L,4.4,U/L,LOW,4,Week 8,2025-10-14
CLIN-2025-042,LB,CLIN-2025-042-SITE04-0054,2,AST,Aspartate aminotransferase,29.88,U/L,29.88,U/L,NORMAL,4,Week 8,2025-10-14
CLIN-2025-042,LB,CLIN-2025-042-SITE04-0054,3,BILI,Bilirubin total,0.93,mg/dL,0.93,mg/dL,NORMAL,4,Week 8,2025-10-14
CLIN-2025-042,LB,CLIN-2025-042-SITE04-0054,4,CREAT,Creatinine,0.74,mg/dL,0.74,mg/dL,NORMAL,4,Week 8,2025-10-14
